onset	duration	trial_type	response	response_time	stim_file
12.01553511619568	2.067301988601685	14.0	-1.0	0.9535579681396484	Breakdancing/v_Breakdancing_id_OOaBSc-1mwM_start_10.0_label_1.mp4
16.015126943588257	2.000485181808472	162.0	1.0	0.4287168979644775	Tumbling/v_Tumbling_id_VzV1ePfLlHY_start_36.0_label_1.mp4
20.014881134033203	2.000408887863159	1.0	1.0	0.5330429077148438	Archery/v_Archery_id_HhDfbFEQdLE_start_11.0_label_1.mp4
24.014508962631226	2.0003981590271	85.0	-1.0	0.6294760704040527	Paintball/v_Paintball_id_8pXSMLz6TWQ_start_5.5_label_1.mp4
28.014039039611816	2.0005459785461426	118.0	1.0	0.4537200927734375	Powerbocking/v_Powerbocking_id_SlS-CeU4WWQ_start_35.5_label_1.mp4
36.01345610618592	2.0006940364837646	136.0	1.0	0.5503580570220947	Shot_put/v_Shot_put_id_K7UVbuCwk7Q_start_12.0_label_1.mp4
40.01316404342652	2.000562906265259	82.0	n/a	n/a	Mixing_drinks/v_Mixing_drinks_id_Ja18ESOgFyE_start_29.5_label_1.mp4
44.01279711723328	2.000618934631348	176.0	-1.0	0.9510810375213624	Waxing_skis/v_Waxing_skis_id_fEiEuI1nsGU_start_20.0_label_1.mp4
48.012442111968994	2.000550031661988	113.0	-1.0	0.6874270439147949	Playing_violin/v_Playing_violin_id_ArI2r2C2IT4_start_73.0_label_1.mp4
52.01210594177246	2.0004591941833496	177.0	-1.0	0.4077920913696289	Welding/v_Welding_id_uEqQHLG5dRc_start_18.0_label_1.mp4
60.01144409179688	2.00050687789917	30.0	-1.0	0.3844361305236816	Cleaning_windows/v_Cleaning_windows_id_UpSsW-YfKrE_start_73.0_label_1.mp4
64.01107597351074	2.0005791187286377	158.0	1.0	0.3608689308166504	Throwing_darts/v_Throwing_darts_id_TNA7K5aCr44_start_6.0_label_1.mp4
68.01075100898743	2.00058913230896	83.0	-1.0	0.537229061126709	Mooping_floor/v_Mooping_floor_id_kUQU8Qy_SAw_start_52.0_label_1.mp4
72.01042699813843	2.000324010848999	78.0	-1.0	0.3295059204101562	Making_a_cake/v_Making_a_cake_id_mg4Uu7O2YTQ_start_19.0_label_1.mp4
76.01007008552551	2.000062942504883	180.0	-1.0	0.0005669593811035	Zumba/v_Zumba_id_Tl5fAu5AW0I_start_17.0_label_1.mp4
84.00943303108215	2.0005199909210205	90.0	-1.0	0.6345090866088867	Plastering/v_Plastering_id_6cp3_E6R5Is_start_42.0_label_1.mp4
88.00913405418396	2.016982078552246	156.0	-1.0	0.8182759284973145	Tai_chi/v_Tai_chi_id_xAYg6WenbIA_start_114.5_label_1.mp4
92.00873804092409	2.0170140266418457	144.0	-1.0	0.6667089462280273	Snatch/v_Snatch_id_nxcztbY6FYM_start_45.0_label_1.mp4
96.00844812393188	2.017025947570801	47.0	-1.0	1.0909018516540527	Elliptical_trainer/v_Elliptical_trainer_id_Tsl1alBx2FM_start_56.5_label_1.mp4
100.00819301605225	2.0169599056243896	13.0	-1.0	0.7872700691223145	Braiding_hair/v_Braiding_hair_id_-c91fisBJkw_start_67.0_label_1.mp4
108.00743103027344	2.00067400932312	10.0	-1.0	0.3963079452514648	Beer_pong/v_Beer_pong_id_QXHLagn6IFg_start_102.5_label_1.mp4
112.0071051120758	2.0171689987182617	46.0	-1.0	0.4361310005187988	Drum_corps/v_Drum_corps_id_mI6a5V0w4y0_start_72.5_label_1.mp4
116.00639295578004	2.01721715927124	130.0	-1.0	0.7646899223327637	Rope_skipping/v_Rope_skipping_id_jEcNbpvoTuk_start_137.0_label_1.mp4
120.0229971408844	2.0003409385681152	31.0	-1.0	0.5409739017486572	Cricket/v_Cricket_id_3enIF_Lm4IQ_start_15.5_label_1.mp4
124.02267813682556	2.00046181678772	112.0	-1.0	0.365394115447998	Playing_squash/v_Playing_squash_id_-4FHTlp06zk_start_163.0_label_1.mp4
132.02199792861938	1.9837160110473635	138.0	-1.0	0.3907718658447265	Shuffleboard/v_Shuffleboard_id_4oD5J9PoYsI_start_43.0_label_1.mp4
136.02162313461304	2.000516891479492	166.0	-1.0	0.6223230361938477	Using_the_pommel_horse/v_Using_the_pommel_horse_id__9PSyQNo6nI_start_49.5_label_1.mp4
140.0213029384613	2.0002970695495605	19.0	-1.0	0.2307558059692382	Bungee_jumping/v_Bungee_jumping_id_n__ZJptoq6E_start_91.0_label_1.mp4
144.020977973938	2.00048303604126	88.0	-1.0	0.0005700588226318	Painting_furniture/v_Painting_furniture_id__JU69WdbSpE_start_18.5_label_1.mp4
148.02062606811523	2.0337698459625244	27.0	1.0	0.342087984085083	Clean_and_jerk/v_Clean_and_jerk_id_We2A2qZ4omE_start_17.0_label_1.mp4
156.02004194259644	2.0003371238708496	68.0	-1.0	0.3920750617980957	Ice_fishing/v_Ice_fishing_id_N27RSCBzZ_0_start_76.0_label_1.mp4
160.0195860862732	2.0005760192871094	148.0	-1.0	0.4164721965789795	Spread_mulch/v_Spread_mulch_id_KLoTfEHWr2E_start_21.5_label_1.mp4
164.01932001113892	2.000437021255493	145.0	1.0	0.5367729663848877	Snow_tubing/v_Snow_tubing_id_qEjI38XMTzE_start_19.5_label_1.mp4
168.01893711090088	2.000875949859619	62.0	1.0	0.3767068386077881	High_jump/v_High_jump_id_8V4FsmXRqsE_start_34.0_label_1.mp4
172.01865410804749	2.000393867492676	73.0	-1.0	0.5694489479064941	Kneeling/v_Kneeling_id_iayBtEr06vQ_start_50.5_label_1.mp4
180.01794409751892	2.017040967941284	94.0	-1.0	0.0654768943786621	Playing_bagpipes/v_Playing_bagpipes_id_USEwM-aEaQk_start_103.5_label_1.mp4
184.01763606071472	2.000581979751587	6.0	-1.0	0.0005769729614257	Ballet/v_Ballet_id_JiweK8ci8rI_start_32.5_label_1.mp4
188.0172770023346	2.000541925430298	157.0	-1.0	0.4667820930480957	Tango/v_Tango_id_zmlUon0EZ2c_start_75.0_label_1.mp4
192.016930103302	2.0005199909210205	97.0	-1.0	0.3792159557342529	Playing_congas/v_Playing_congas_id_nekZKPnNqbY_start_45.5_label_1.mp4
196.016587972641	2.00048303604126	147.0	-1.0	0.483483076095581	Spinning/v_Spinning_id_6i9jwX9NNkA_start_32.5_label_1.mp4
204.015967130661	2.00051498413086	45.0	-1.0	0.2601649761199951	Drinking_coffee/v_Drinking_coffee_id_NGkJhX-To44_start_12.5_label_1.mp4
208.01562595367432	2.000360012054444	142.0	-1.0	0.0445499420166015	Smoking_a_cigarette/v_Smoking_a_cigarette_id_PdegJRlGT-E_start_82.0_label_1.mp4
212.0152699947357	2.000035047531128	149.0	-1.0	0.6372239589691162	Springboard_diving/v_Springboard_diving_id_2hd0S-Pu5xE_start_73.0_label_1.mp4
216.01452493667605	2.034398078918457	26.0	-1.0	0.2517600059509277	Chopping_wood/v_Chopping_wood_id_cf8TfHtgLLc_start_17.5_label_1.mp4
220.0145890712738	2.000411033630371	60.0	-1.0	0.5414350032806396	Hanging_wallpaper/v_Hanging_wallpaper_id_XGr79kwFhQc_start_93.5_label_1.mp4
228.01393508911133	2.0004079341888428	114.0	1.0	0.2301478385925293	Playing_water_polo/v_Playing_water_polo_id_vajtNYawgc4_start_10.0_label_1.mp4
232.01352500915527	2.0004470348358154	174.0	-1.0	0.2626020908355713	Washing_hands/v_Washing_hands_id_cZmD0YUgJhs_start_15.0_label_1.mp4
236.01325511932373	2.000574827194214	74.0	-1.0	0.4068701267242431	Knitting/v_Knitting_id_iURCG2rBenI_start_140.5_label_1.mp4
240.01293396949768	2.000180959701538	169.0	-1.0	0.5354728698730469	Vacuuming_floor/v_Vacuuming_floor_id_ZKP9JCqYqy0_start_5.5_label_1.mp4
244.01251912117004	2.0004467964172363	2.0	1.0	0.0005700588226318	Arm_wrestling/v_Arm_wrestling_id_YJT3Al58dZ0_start_16.0_label_1.mp4
252.01192808151245	2.000443935394287	117.0	-1.0	0.264272928237915	Polishing_shoes/v_Polishing_shoes_id_dGd2foh1_Vk_start_148.5_label_1.mp4
256.01152205467224	1.9997999668121336	172.0	-1.0	0.4250431060791015	Walking_the_dog/v_Walking_the_dog_id_7CezALnkutg_start_7.0_label_1.mp4
260.01117300987244	1.99994707107544	110.0	-1.0	0.4735250473022461	Playing_rubik_cube/v_Playing_rubik_cube_id_J3HK4xJkveE_start_110.0_label_1.mp4
264.0108690261841	2.017141103744507	69.0	-1.0	0.4165728092193603	Ironing_clothes/v_Ironing_clothes_id_1h8dlL52F3Y_start_9.0_label_1.mp4
268.010528087616	2.000213861465454	95.0	1.0	0.4579460620880127	Playing_beach_volleyball/v_Playing_beach_volleyball_id_g-jVCr5lEgQ_start_18.0_label_1.mp4
276.0098559856415	2.034029006958008	167.0	1.0	0.7608242034912109	Using_the_rowing_machine/v_Using_the_rowing_machine_id_9gSaXWogUAY_start_24.0_label_1.mp4
280.0095191001892	2.017132043838501	24.0	-1.0	0.497899055480957	Carving_jack-o-lanterns/v_Carving_jack-o-lanterns_id_09AbbZtqWZI_start_6.5_label_1.mp4
284.00927114486694	1.9998247623443604	131.0	-1.0	0.3635950088500976	Running_a_marathon/v_Running_a_marathon_id_OZZh4PLjVsY_start_6.0_label_1.mp4
288.00884103775024	2.0170130729675293	81.0	-1.0	0.4186410903930664	Making_an_omelette/v_Making_an_omelette_id_dIAmppi3-_E_start_78.5_label_1.mp4
292.0085051059723	2.01698899269104	58.0	-1.0	0.000586986541748	Hand_car_wash/v_Hand_car_wash_id_IBrQf2HgDx8_start_60.0_label_1.mp4
