onset	duration	trial_type	response	response_time	stim_file
12.015245199203491	2.0669469833374023	50.0	-1.0	0.3739230632781982	Fun_sliding_down/v_Fun_sliding_down_id_KJILVY-n4Ws_start_1.5_label_1.mp4
16.014883041381836	2.000636100769043	23.0	1.0	0.4408540725708008	Capoeira/v_Capoeira_id_4GGGS_CMd1A_start_81.0_label_1.mp4
20.01455307006836	2.0006020069122314	48.0	-1.0	0.369189977645874	Fixing_bicycle/v_Fixing_bicycle_id_6y-QeOBq3Pw_start_22.0_label_1.mp4
24.01428914070129	2.0338799953460693	172.0	-1.0	0.3613879680633545	Walking_the_dog/v_Walking_the_dog_id_Vls75LqWib4_start_50.5_label_1.mp4
28.013862133026123	2.0506839752197266	121.0	-1.0	0.151911973953247	Putting_in_contact_lenses/v_Putting_in_contact_lenses_id_typjqwjZsoo_start_35.5_label_1.mp4
36.01319408416748	2.0005910396575928	64.0	-1.0	0.2025010585784912	Hopscotch/v_Hopscotch_id_GGZZqijBgeI_start_49.0_label_1.mp4
40.01285004615784	2.0004589557647705	70.0	1.0	0.7710850238800049	Javelin_throw/v_Javelin_throw_id_v02AcklHhhs_start_2.0_label_1.mp4
44.01251411437988	2.0006558895111084	41.0	1.0	0.3152079582214355	Doing_kickboxing/v_Doing_kickboxing_id_ANzHioq_KjY_start_10.0_label_1.mp4
48.0121500492096	2.0333659648895264	81.0	-1.0	0.258882999420166	Making_an_omelette/v_Making_an_omelette_id_AQZcrzRzuns_start_30.0_label_1.mp4
52.011866092681885	2.017455101013184	179.0	-1.0	0.3150668144226074	Wrapping_presents/v_Wrapping_presents_id_yqJXWU8BXEQ_start_2.0_label_1.mp4
60.011221170425415	2.033922910690308	104.0	-1.0	0.571274995803833	Playing_kickball/v_Playing_kickball_id_GlCEwdDze18_start_119.5_label_1.mp4
64.01081919670105	2.0002880096435547	5.0	-1.0	0.373337984085083	Baking_cookies/v_Baking_cookies_id_L-2sx1qYHkA_start_48.5_label_1.mp4
68.0105471611023	2.000046968460083	108.0	1.0	0.3417150974273681	Playing_pool/v_Playing_pool_id_6zDxaSCLoE4_start_13.5_label_1.mp4
72.00974321365356	2.0013020038604736	143.0	-1.0	0.229449987411499	Smoking_hookah/v_Smoking_hookah_id_n8NNHk0xSdw_start_34.0_label_1.mp4
76.00984215736389	2.050318956375122	134.0	-1.0	0.1081221103668212	Sharpening_knives/v_Sharpening_knives_id_Zjg4NDADHuo_start_23.5_label_1.mp4
84.00914001464844	2.000563144683838	130.0	-1.0	0.214709997177124	Rope_skipping/v_Rope_skipping_id_5xHeqfqDtgA_start_103.5_label_1.mp4
88.00881004333496	2.000516176223755	141.0	-1.0	0.3750650882720947	Slacklining/v_Slacklining_id_Wbk-3Txarhg_start_40.0_label_1.mp4
92.0084331035614	2.017159938812256	19.0	-1.0	0.1987979412078857	Bungee_jumping/v_Bungee_jumping_id_GIHf6H5c90I_start_132.0_label_1.mp4
96.0081160068512	2.0173110961914062	149.0	1.0	0.3910319805145263	Springboard_diving/v_Springboard_diving_id_UMRIPz6gOrk_start_6.0_label_1.mp4
100.00778603553772	2.01711106300354	147.0	1.0	0.3514130115509033	Spinning/v_Spinning_id_DQCWlWNiFlU_start_88.0_label_1.mp4
108.00716304779051	2.000601053237915	122.0	-1.0	0.0006270408630371	Putting_on_makeup/v_Putting_on_makeup_id_6UiIl0rbrlU_start_85.0_label_1.mp4
112.0234580039978	2.000040054321289	35.0	-1.0	0.3607828617095947	Disc_dog/v_Disc_dog_id_pyhjEHWrnSw_start_77.5_label_1.mp4
116.0231671333313	2.0005300045013428	20.0	-1.0	0.2248568534851074	Calf_roping/v_Calf_roping_id_jp_AXXik6zM_start_78.0_label_1.mp4
120.02280521392822	2.000572919845581	168.0	1.0	0.3610270023345947	Using_uneven_bars/v_Using_uneven_bars_id_P_e4BlO947E_start_37.0_label_1.mp4
124.02245712280272	2.0005340576171875	91.0	-1.0	0.4814469814300537	Plataform_diving/v_Plataform_diving_id_lTP0-Oo1Pcc_start_48.5_label_1.mp4
132.0217640399933	1.9840669631958008	118.0	-1.0	0.4827320575714111	Powerbocking/v_Powerbocking_id_FZ5jDrBxl0Y_start_26.5_label_1.mp4
136.0214331150055	2.0004050731658936	69.0	-1.0	0.4185249805450439	Ironing_clothes/v_Ironing_clothes_id_V887wNhhHqc_start_11.0_label_1.mp4
140.02111721038818	2.0004379749298096	43.0	-1.0	0.3628370761871338	Doing_nails/v_Doing_nails_id_Gj5agmKRJB4_start_5.5_label_1.mp4
144.02076721191406	2.0004148483276367	84.0	-1.0	0.6911928653717041	Mowing_the_lawn/v_Mowing_the_lawn_id_JXJ5Bem1ktY_start_2.5_label_1.mp4
148.02043199539185	2.0004770755767822	137.0	-1.0	0.219451904296875	Shoveling_snow/v_Shoveling_snow_id_q5m8InJ5_nU_start_58.5_label_1.mp4
156.01973915100098	2.0004658699035645	45.0	-1.0	0.1161718368530273	Drinking_coffee/v_Drinking_coffee_id_SF-tWX5rifM_start_102.5_label_1.mp4
160.01944613456726	2.0339019298553467	61.0	-1.0	0.4191069602966308	Having_an_ice_cream/v_Having_an_ice_cream_id_crpyykf_zgI_start_21.5_label_1.mp4
164.01908707618713	2.000622034072876	114.0	1.0	0.3169350624084472	Playing_water_polo/v_Playing_water_polo_id_fVGn4luNLow_start_74.0_label_1.mp4
168.01875019073486	2.0006418228149414	131.0	1.0	0.4291009902954101	Running_a_marathon/v_Running_a_marathon_id_jSINaq0rGgw_start_7.5_label_1.mp4
172.01837706565857	2.0006909370422363	60.0	-1.0	0.3574509620666504	Hanging_wallpaper/v_Hanging_wallpaper_id_50IBCt1eSYQ_start_6.0_label_1.mp4
180.01773715019226	2.0003650188446045	163.0	1.0	0.4862580299377441	Using_parallel_bars/v_Using_parallel_bars_id_93cu6w2rHLg_start_43.0_label_1.mp4
184.01747298240664	2.000347137451172	39.0	1.0	0.6465258598327637	Doing_fencing/v_Doing_fencing_id_jKrUgw06MeQ_start_67.0_label_1.mp4
188.01700806617737	2.0006821155548096	155.0	-1.0	0.4628140926361084	Table_soccer/v_Table_soccer_id_F-TwH1op_3Y_start_8.0_label_1.mp4
192.01676321029663	1.9999058246612549	18.0	-1.0	0.2556259632110595	Bullfighting/v_Bullfighting_id_c-t0kTyV68U_start_3.0_label_1.mp4
196.01633405685425	2.000486135482788	124.0	1.0	0.3436529636383056	Rafting/v_Rafting_id_zM4n0D3fouk_start_13.5_label_1.mp4
204.0157330036164	2.000413179397583	170.0	1.0	0.1202809810638427	Volleyball/v_Volleyball_id_cP4M7k_XZEk_start_7.0_label_1.mp4
208.0153651237488	2.0004560947418213	157.0	-1.0	0.2327759265899658	Tango/v_Tango_id_iqpgevMTQIA_start_147.0_label_1.mp4
212.0150301456452	2.000546932220459	57.0	1.0	0.3770120143890381	Hammer_throw/v_Hammer_throw_id_JmmVd5rvAlU_start_47.5_label_1.mp4
216.0146851539612	2.000424861907959	63.0	-1.0	0.5613019466400146	Hitting_a_pinata/v_Hitting_a_pinata_id_77u-THSfACo_start_43.5_label_1.mp4
220.01437520980835	2.0005548000335693	33.0	-1.0	0.3617050647735595	Cutting_the_grass/v_Cutting_the_grass_id_hExnPqmIn5s_start_57.0_label_1.mp4
228.0136411190033	2.000530958175659	120.0	-1.0	0.0005340576171875	Preparing_salad/v_Preparing_salad_id_xH8l5rCWrMU_start_41.0_label_1.mp4
232.01328802108765	2.0004100799560547	94.0	-1.0	0.602741003036499	Playing_bagpipes/v_Playing_bagpipes_id_ChzxLuPuguU_start_46.5_label_1.mp4
236.0129721164704	2.000556945800781	115.0	-1.0	0.595034122467041	Pole_vault/v_Pole_vault_id_q-jDrD6H3zk_start_41.5_label_1.mp4
240.01259112358093	2.00067400932312	100.0	-1.0	0.4353079795837402	Playing_flauta/v_Playing_flauta_id_8T21GWu6-v4_start_76.5_label_1.mp4
244.01228404045105	2.0007801055908203	53.0	-1.0	0.8436620235443115	Getting_a_piercing/v_Getting_a_piercing_id_Marq1QN31OU_start_78.5_label_1.mp4
252.0116140842437	2.000519037246704	159.0	-1.0	0.2924439907073974	Trimming_branches_or_hedges/v_Trimming_branches_or_hedges_id_BxgnRquV4Yw_start_10.5_label_1.mp4
256.0112850666046	1.9999570846557613	109.0	1.0	0.3732168674468994	Playing_racquetball/v_Playing_racquetball_id_jWkZAFIxUMg_start_7.0_label_1.mp4
260.0109670162201	2.000324010848999	151.0	-1.0	0.3013370037078857	Sumo/v_Sumo_id_yqztdHr2ETI_start_116.0_label_1.mp4
264.0105891227722	2.0006120204925537	17.0	n/a	n/a	Building_sandcastles/v_Building_sandcastles_id_b1SFctLNMUI_start_70.0_label_1.mp4
268.01023411750793	2.00023889541626	119.0	-1.0	0.6460998058319092	Preparing_pasta/v_Preparing_pasta_id_zxTrOQ6vJUI_start_93.5_label_1.mp4
276.0095200538635	2.000508069992065	77.0	1.0	0.3744580745697021	Longboarding/v_Longboarding_id_7rL_v-7mOhE_start_49.5_label_1.mp4
280.009229183197	2.0170698165893555	34.0	-1.0	0.3901741504669189	Decorating_the_Christmas_tree/v_Decorating_the_Christmas_tree_id_0xa8D6gQLX4_start_7.0_label_1.mp4
284.00884318351746	2.0171449184417725	150.0	-1.0	0.4544589519500732	Starting_a_campfire/v_Starting_a_campfire_id_4avLmBUSkGI_start_8.5_label_1.mp4
288.00851702690125	2.0171000957489014	11.0	1.0	0.7508518695831299	Belly_dance/v_Belly_dance_id_FGVkSAG5NwU_start_137.0_label_1.mp4
292.0081660747528	2.0171380043029785	103.0	-1.0	1.0151870250701904	Playing_ice_hockey/v_Playing_ice_hockey_id_mHaoTBugaIo_start_12.0_label_1.mp4
