onset	duration	trial_type	response	response_time	stim_file
12.014629125595093	2.0673089027404785	25.0	-1.0	0.4300479888916015	Cheerleading/v_Cheerleading_id_UUn578DNjz4_start_3.5_label_1.mp4
16.014418125152588	2.0004539489746094	125.0	-1.0	0.3050248622894287	Raking_leaves/v_Raking_leaves_id_igJcMJBBC2s_start_8.5_label_1.mp4
20.01400899887085	2.000648021697998	3.0	-1.0	0.1933839321136474	Assembling_bicycle/v_Assembling_bicycle_id_33AwkoAujc4_start_116.0_label_1.mp4
24.0136079788208	2.0008881092071533	20.0	-1.0	0.3453578948974609	Calf_roping/v_Calf_roping_id_76WgwkE74Ks_start_46.0_label_1.mp4
28.01328206062317	2.0007309913635254	119.0	-1.0	0.2978909015655517	Preparing_pasta/v_Preparing_pasta_id_xhXcJ6bhX2w_start_148.5_label_1.mp4
36.01230001449585	2.000925064086914	55.0	-1.0	0.0668530464172363	Grooming_dog/v_Grooming_dog_id_MhR59s8aXks_start_70.0_label_1.mp4
40.01261806488037	2.0167739391326904	154.0	1.0	0.1785228252410888	Swinging_at_the_playground/v_Swinging_at_the_playground_id_dTFqmhvnCyI_start_3.0_label_1.mp4
44.01190996170044	2.000549077987671	86.0	-1.0	0.4597980976104736	Painting/v_Painting_id_xAPz4YOcIX0_start_101.0_label_1.mp4
48.0115749835968	2.000692129135132	115.0	1.0	0.6517181396484375	Pole_vault/v_Pole_vault_id_I3UUXQtlpwA_start_3.0_label_1.mp4
52.01124596595764	2.0173940658569336	37.0	1.0	0.8435461521148682	Dodgeball/v_Dodgeball_id_M4bF68LkcMg_start_7.0_label_1.mp4
60.01054406166077	2.000560998916626	107.0	-1.0	0.5568428039550781	Playing_polo/v_Playing_polo_id_2CvL6rc7XPU_start_4.0_label_1.mp4
64.0102379322052	2.0503861904144287	160.0	1.0	0.2513549327850342	Triple_jump/v_Triple_jump_id_-gdD4AA499A_start_58.5_label_1.mp4
68.00985598564148	2.0166471004486084	163.0	1.0	0.4132020473480224	Using_parallel_bars/v_Using_parallel_bars_id_8wfo8-SMl34_start_13.0_label_1.mp4
72.00950407981873	2.050503969192505	5.0	-1.0	0.3398618698120117	Baking_cookies/v_Baking_cookies_id_qjzRwi9dRdw_start_116.5_label_1.mp4
76.0092420578003	2.0503640174865723	98.0	-1.0	0.5162668228149414	Playing_drums/v_Playing_drums_id_eZd3LTPCGFg_start_27.5_label_1.mp4
84.00856304168701	2.001338005065918	101.0	-1.0	0.3822500705718994	Playing_guitarra/v_Playing_guitarra_id_LhxeiXI3uwE_start_70.0_label_1.mp4
88.00820207595825	2.050441026687622	34.0	-1.0	0.7333700656890869	Decorating_the_Christmas_tree/v_Decorating_the_Christmas_tree_id_OTUhwAG1qEg_start_51.0_label_1.mp4
92.00781989097597	2.017064094543457	92.0	-1.0	0.3510138988494873	Playing_accordion/v_Playing_accordion_id_fIA-oKWYDfA_start_3.0_label_1.mp4
96.02414107322691	2.0002598762512207	50.0	-1.0	0.4235069751739502	Fun_sliding_down/v_Fun_sliding_down_id_4UQRaRnIIl8_start_7.0_label_1.mp4
100.00684690475464	2.017270088195801	127.0	1.0	0.3436541557312011	Rock_climbing/v_Rock_climbing_id_8Vj_5q5ISF8_start_56.5_label_1.mp4
108.0232000350952	1.983793020248413	87.0	-1.0	0.3849599361419678	Painting_fence/v_Painting_fence_id_xcPlNUHab2M_start_48.0_label_1.mp4
112.00636005401611	2.01739501953125	15.0	-1.0	0.3121979236602783	Brushing_hair/v_Brushing_hair_id_1D4MLQl068o_start_14.0_label_1.mp4
116.0224950313568	2.033853054046631	56.0	-1.0	0.0006101131439208	Grooming_horse/v_Grooming_horse_id_OGzgGaEgPZ4_start_80.0_label_1.mp4
120.02211499214172	2.000473022460937	159.0	1.0	0.4893980026245117	Trimming_branches_or_hedges/v_Trimming_branches_or_hedges_id_HkeGR0s0Vtg_start_134.5_label_1.mp4
124.0222749710083	1.99994707107544	140.0	1.0	0.3216679096221924	Skiing/v_Skiing_id_suJQw8dIupI_start_83.0_label_1.mp4
132.02106308937073	2.03373384475708	8.0	-1.0	0.6891491413116455	Baton_twirling/v_Baton_twirling_id_citmcIRlBEs_start_90.0_label_1.mp4
136.020761013031	2.0337131023406982	173.0	n/a	n/a	Washing_dishes/v_Washing_dishes_id_HLH7qizf91U_start_22.5_label_1.mp4
140.02074909210205	2.033350944519043	100.0	-1.0	1.4737370014190674	Playing_flauta/v_Playing_flauta_id_uPRvsbm26uA_start_59.0_label_1.mp4
144.02014589309692	2.000563144683838	121.0	-1.0	0.7633829116821289	Putting_in_contact_lenses/v_Putting_in_contact_lenses_id_h2kxfjspH0Q_start_10.0_label_1.mp4
148.01978397369385	2.0003669261932373	49.0	-1.0	0.4357690811157226	Fixing_the_roof/v_Fixing_the_roof_id_COwtQ9COMJw_start_13.0_label_1.mp4
156.01876592636108	2.000758171081543	4.0	1.0	0.2204399108886718	BMX/v_BMX_id_QfJtfDokBLE_start_88.0_label_1.mp4
160.0187680721283	2.000680923461914	43.0	-1.0	0.1967229843139648	Doing_nails/v_Doing_nails_id_dzBCaJSinAs_start_153.0_label_1.mp4
164.01891803741455	1.9998550415039065	103.0	-1.0	0.9732799530029296	Playing_ice_hockey/v_Playing_ice_hockey_id_hTgORgbvnDA_start_2.5_label_1.mp4
168.0181200504303	2.0003459453582764	66.0	-1.0	0.2294058799743652	Hula_hoop/v_Hula_hoop_id_2hyVQbmA9vw_start_85.0_label_1.mp4
172.01772594451904	2.0011119842529297	48.0	-1.0	0.4132959842681885	Fixing_bicycle/v_Fixing_bicycle_id_t-B4p5xk-U8_start_45.0_label_1.mp4
180.017107963562	2.000761032104492	57.0	-1.0	0.0005018711090087	Hammer_throw/v_Hammer_throw_id_QfHTdYj8Aqc_start_5.0_label_1.mp4
184.0172460079193	1.999929904937744	152.0	-1.0	0.3828799724578857	Surfing/v_Surfing_id_bATFTGpr7u8_start_49.5_label_1.mp4
188.01638412475583	2.0006308555603027	124.0	1.0	0.9111511707305908	Rafting/v_Rafting_id_sVgBWtT4bJ8_start_34.0_label_1.mp4
192.0160629749298	2.0006589889526367	132.0	-1.0	0.4953031539916992	Sailing/v_Sailing_id_AEn-0uz4-vo_start_49.0_label_1.mp4
196.0158369541168	2.000250101089477	33.0	-1.0	0.2961430549621582	Cutting_the_grass/v_Cutting_the_grass_id_lwg5RKMT1zg_start_1.5_label_1.mp4
204.01530504226685	2.033632040023804	59.0	-1.0	0.0005280971527099	Hand_washing_clothes/v_Hand_washing_clothes_id_Mx3VQjjp3o0_start_17.0_label_1.mp4
208.01468801498413	2.0340468883514404	109.0	1.0	0.0874500274658203	Playing_racquetball/v_Playing_racquetball_id_DdpnpM_VRw8_start_52.0_label_1.mp4
212.0142800807953	2.000645875930786	79.0	1.0	0.0005180835723876	Making_a_lemonade/v_Making_a_lemonade_id_H_gU12gmIyk_start_13.0_label_1.mp4
216.0140171051025	2.033792018890381	137.0	-1.0	0.3761990070343017	Shoveling_snow/v_Shoveling_snow_id_5wwxp7yS_7E_start_62.0_label_1.mp4
220.01371097564697	2.03377103805542	75.0	-1.0	0.5365049839019775	Laying_tile/v_Laying_tile_id_vd3ihAa9Z-4_start_123.5_label_1.mp4
228.01300406456	2.033719062805176	52.0	-1.0	0.3691940307617187	Getting_a_haircut/v_Getting_a_haircut_id_y-ceaMhfs3I_start_19.5_label_1.mp4
232.0126819610596	2.016922950744629	161.0	-1.0	0.5783441066741943	Tug_of_war/v_Tug_of_war_id_89Jgxvm6HPM_start_86.5_label_1.mp4
236.01235795021057	2.017008066177368	126.0	-1.0	0.3545160293579101	Riding_bumper_cars/v_Riding_bumper_cars_id_PtNBEJqaZ1Y_start_206.0_label_1.mp4
240.0120038986206	2.000407218933105	80.0	-1.0	0.2918479442596435	Making_a_sandwich/v_Making_a_sandwich_id_iwTOILElPjI_start_75.5_label_1.mp4
244.0114529132843	2.0008511543273926	91.0	1.0	0.4758369922637939	Plataform_diving/v_Plataform_diving_id_3VxDuY-qHow_start_49.0_label_1.mp4
252.0109739303589	2.0004961490631104	29.0	-1.0	0.4368209838867187	Cleaning_sink/v_Cleaning_sink_id_3wZhc-muycg_start_50.5_label_1.mp4
256.01070189476013	2.0004961490631104	89.0	1.0	0.5808558464050293	Ping-pong/v_Ping-pong_id_yRmdnVQuMM0_start_73.5_label_1.mp4
260.010313987732	2.0007009506225586	36.0	1.0	0.8531489372253418	Discus_throw/v_Discus_throw_id__Uu5Khj9DCQ_start_4.0_label_1.mp4
264.0100591182709	2.0005619525909424	111.0	-1.0	0.6774308681488037	Playing_saxophone/v_Playing_saxophone_id_WwWRMO_GIrE_start_24.0_label_1.mp4
268.0098979473114	2.0330049991607666	122.0	-1.0	0.2851209640502929	Putting_on_makeup/v_Putting_on_makeup_id_-wL8dsSZxn4_start_60.0_label_1.mp4
276.0089690685272	2.0006818771362305	38.0	1.0	0.0006971359252929	Doing_crunches/v_Doing_crunches_id_4lNVNenQeEI_start_32.0_label_1.mp4
280.00860500335693	2.0505080223083496	61.0	-1.0	0.4448239803314209	Having_an_ice_cream/v_Having_an_ice_cream_id_CQwsVZEpPTM_start_3.5_label_1.mp4
284.0080189704895	2.0174930095672607	65.0	-1.0	0.0005469322204589	Horseback_riding/v_Horseback_riding_id_cM_Ggm60CZY_start_2.0_label_1.mp4
288.00803399086	2.017048120498657	28.0	-1.0	0.5349769592285156	Cleaning_shoes/v_Cleaning_shoes_id_W4wHSG8GXxw_start_46.0_label_1.mp4
292.0076129436493	2.0170819759368896	165.0	-1.0	0.5834219455718994	Using_the_monkey_bar/v_Using_the_monkey_bar_id_BaIJGZelm8w_start_13.0_label_1.mp4
