onset	duration	trial_type	response	response_time	stim_file
12.015096187591553	2.067055940628052	54.0	-1.0	0.5948929786682129	Getting_a_tattoo/v_Getting_a_tattoo_id_M_EnsXQDVcU_start_161.5_label_1.mp4
16.01474905014038	2.0006139278411865	162.0	1.0	0.6297309398651123	Tumbling/v_Tumbling_id_K4ROh-uQUDI_start_40.0_label_1.mp4
20.01444911956787	2.0005948543548584	9.0	-1.0	0.7181799411773682	Beach_soccer/v_Beach_soccer_id_sCs5wYf-i7I_start_173.0_label_1.mp4
24.014117002487183	2.000286102294922	79.0	-1.0	0.5986568927764893	Making_a_lemonade/v_Making_a_lemonade_id_ISQM3VZKapM_start_12.5_label_1.mp4
28.01376700401306	2.0004801750183105	134.0	-1.0	4.846889972686768	Sharpening_knives/v_Sharpening_knives_id_Um0wcuNAmWA_start_1.5_label_1.mp4
36.01303696632385	2.000718116760254	21.0	-1.0	0.6954779624938965	Camel_ride/v_Camel_ride_id_lImTK6hJuSY_start_29.0_label_1.mp4
40.01280403137207	2.033539056777954	71.0	1.0	0.4548020362854004	Kayaking/v_Kayaking_id_aYbWbMsHCPg_start_159.0_label_1.mp4
44.01240396499634	2.03383207321167	77.0	1.0	0.5029358863830566	Longboarding/v_Longboarding_id_1MLbm0Bar7Y_start_17.5_label_1.mp4
48.012032985687256	2.000493049621582	176.0	-1.0	0.536614179611206	Waxing_skis/v_Waxing_skis_id_6ezGEOZQkbI_start_15.0_label_1.mp4
52.0116810798645	2.03336501121521	98.0	-1.0	0.8000590801239014	Playing_drums/v_Playing_drums_id_eI_1t6ZoqUU_start_18.0_label_1.mp4
60.01106405258179	2.0004451274871826	78.0	-1.0	0.5776419639587402	Making_a_cake/v_Making_a_cake_id_5oH2CzTGEgA_start_26.5_label_1.mp4
64.01074314117432	2.000605821609497	32.0	1.0	0.8660497665405273	Croquet/v_Croquet_id_o4WsIOxOrR8_start_3.5_label_1.mp4
68.01034212112427	2.017158031463623	121.0	-1.0	0.505666971206665	Putting_in_contact_lenses/v_Putting_in_contact_lenses_id_TgZuuP_LJz8_start_0.5_label_1.mp4
72.0099949836731	1.99996018409729	23.0	-1.0	0.4991998672485351	Capoeira/v_Capoeira_id_M7DgXzo0ezk_start_70.0_label_1.mp4
76.00966906547546	2.0000460147857666	62.0	1.0	3.867583990097046	High_jump/v_High_jump_id_JlYd45twrvQ_start_1.0_label_1.mp4
84.0090069770813	2.0004281997680664	74.0	-1.0	0.4277400970458984	Knitting/v_Knitting_id_1xTKfPzL0aY_start_19.0_label_1.mp4
88.00868797302246	2.01709508895874	169.0	-1.0	0.4673759937286377	Vacuuming_floor/v_Vacuuming_floor_id_sd4TX3YYzzI_start_17.5_label_1.mp4
92.0083351135254	1.9998719692230225	72.0	-1.0	0.5009150505065918	Kite_flying/v_Kite_flying_id_R0_VTv0lxzQ_start_5.5_label_1.mp4
96.00799298286438	2.017117977142334	29.0	-1.0	0.5880320072174072	Cleaning_sink/v_Cleaning_sink_id_g3_Fe2pX7xE_start_77.0_label_1.mp4
100.00761008262634	2.017158031463623	130.0	1.0	0.4764261245727539	Rope_skipping/v_Rope_skipping_id_N3rObZ1TFrk_start_41.0_label_1.mp4
108.02364015579224	2.033651828765869	88.0	-1.0	0.9238629341125488	Painting_furniture/v_Painting_furniture_id_Tk3EEfzyF1o_start_88.0_label_1.mp4
112.02330803871156	2.000261068344116	70.0	1.0	0.7894890308380127	Javelin_throw/v_Javelin_throw_id_C0E-Pgu1cMw_start_187.0_label_1.mp4
116.005793094635	2.017571926116944	27.0	-1.0	0.7099010944366455	Clean_and_jerk/v_Clean_and_jerk_id_brJIGpZ3j6Y_start_13.5_label_1.mp4
120.02266812324524	2.033890008926392	163.0	1.0	1.5648338794708252	Using_parallel_bars/v_Using_parallel_bars_id_CclRYasxxio_start_23.0_label_1.mp4
124.0222589969635	2.0004611015319824	51.0	1.0	0.6625149250030518	Futsal/v_Futsal_id_HUzoMRdSrZo_start_68.0_label_1.mp4
132.02163195610046	1.9833950996398928	80.0	-1.0	0.4642741680145263	Making_a_sandwich/v_Making_a_sandwich_id_c_oboSuiY3c_start_79.0_label_1.mp4
136.0212960243225	2.0003890991210938	178.0	1.0	0.7275540828704834	Windsurfing/v_Windsurfing_id_jMKsCej0p64_start_114.5_label_1.mp4
140.02092504501343	2.000375986099243	133.0	1.0	0.6478848457336426	Scuba_diving/v_Scuba_diving_id_54j8jUOfG4U_start_104.5_label_1.mp4
144.0205841064453	2.000593900680542	34.0	-1.0	0.4642610549926758	Decorating_the_Christmas_tree/v_Decorating_the_Christmas_tree_id_GfThlz89zfw_start_40.0_label_1.mp4
148.02023196220398	2.000472068786621	94.0	-1.0	0.5125408172607422	Playing_bagpipes/v_Playing_bagpipes_id_zpaCWSrkTcE_start_52.0_label_1.mp4
156.01957511901855	2.000361919403076	127.0	-1.0	1.00941801071167	Rock_climbing/v_Rock_climbing_id_wiAs68-V6o8_start_69.0_label_1.mp4
160.01924896240234	2.00058913230896	25.0	1.0	0.961556911468506	Cheerleading/v_Cheerleading_id_6s0zKYmtFo8_start_86.5_label_1.mp4
164.01888799667358	2.0004329681396484	114.0	1.0	0.8260021209716797	Playing_water_polo/v_Playing_water_polo_id_tMEPtO9HE4g_start_112.0_label_1.mp4
168.01854395866394	2.000895023345948	170.0	1.0	0.5298659801483154	Volleyball/v_Volleyball_id_KI1hSLO1FaE_start_167.0_label_1.mp4
172.01823115348816	2.034057855606079	76.0	-1.0	0.8812379837036133	Long_jump/v_Long_jump_id_KTJ90clG0Qw_start_54.5_label_1.mp4
180.01752400398254	2.0004611015319824	142.0	-1.0	0.8512728214263916	Smoking_a_cigarette/v_Smoking_a_cigarette_id_W_nG-GLc9zc_start_125.0_label_1.mp4
184.01718497276303	2.0004940032958984	101.0	-1.0	1.835679054260254	Playing_guitarra/v_Playing_guitarra_id_Sl9GMOTaqtc_start_7.0_label_1.mp4
188.01690316200256	2.0170838832855225	33.0	-1.0	0.459306001663208	Cutting_the_grass/v_Cutting_the_grass_id_0mmmYUAbmCg_start_12.5_label_1.mp4
192.01649808883667	2.0005688667297363	128.0	-1.0	0.612401008605957	Rock-paper-scissors/v_Rock-paper-scissors_id_wctWUdQ96lM_start_174.5_label_1.mp4
196.01619005203247	2.000582933425904	111.0	-1.0	2.500666856765747	Playing_saxophone/v_Playing_saxophone_id_1DGgC1sclpY_start_37.0_label_1.mp4
204.01631903648376	1.9998071193695068	3.0	-1.0	0.4373469352722168	Assembling_bicycle/v_Assembling_bicycle_id_PXggOQuKJDI_start_7.5_label_1.mp4
208.01517701148987	2.0004069805145264	1.0	-1.0	1.5177791118621826	Archery/v_Archery_id_RvSe_IQMav0_start_40.5_label_1.mp4
212.014906167984	2.000358819961548	149.0	1.0	0.7820999622344971	Springboard_diving/v_Springboard_diving_id_m9c6v6gBUCs_start_67.0_label_1.mp4
216.01452016830444	2.000398874282837	35.0	-1.0	0.7583458423614502	Disc_dog/v_Disc_dog_id_PIkJRReT9xw_start_104.0_label_1.mp4
220.0141830444336	2.000352144241333	137.0	-1.0	0.6947829723358154	Shoveling_snow/v_Shoveling_snow_id_fphKf1fH6nk_start_41.5_label_1.mp4
228.01348304748527	2.0004770755767822	166.0	1.0	0.5993518829345703	Using_the_pommel_horse/v_Using_the_pommel_horse_id_qRMmq_ijO68_start_47.0_label_1.mp4
232.013188123703	2.000525951385498	59.0	-1.0	0.5516841411590576	Hand_washing_clothes/v_Hand_washing_clothes_id_rHH-DpnFdlg_start_38.5_label_1.mp4
236.0127820968628	2.033663988113404	22.0	-1.0	0.0006821155548095	Canoeing/v_Canoeing_id_wx3Q655P7fI_start_153.0_label_1.mp4
240.0124680995941	2.000541925430298	144.0	1.0	0.8164560794830322	Snatch/v_Snatch_id_kQZgn7xuNVQ_start_15.0_label_1.mp4
244.0121619701385	2.000394105911255	117.0	-1.0	4.624910116195679	Polishing_shoes/v_Polishing_shoes_id_2SBTnunPQrQ_start_15.0_label_1.mp4
252.0114390850067	2.000344038009644	47.0	-1.0	0.9215660095214844	Elliptical_trainer/v_Elliptical_trainer_id_ZCzSfPKmg0s_start_37.0_label_1.mp4
256.0111081600189	2.000433921813965	67.0	1.0	0.6338589191436768	Hurling/v_Hurling_id_FnD0279OIfU_start_30.5_label_1.mp4
260.0107700824737	2.0172119140625	10.0	-1.0	0.5694949626922607	Beer_pong/v_Beer_pong_id_Ee5HlZKPAZQ_start_2.5_label_1.mp4
264.0103850364685	2.0171711444854736	139.0	-1.0	0.0005609989166259	Skateboarding/v_Skateboarding_id_URzAkL6m1lQ_start_15.5_label_1.mp4
268.0101170539856	2.017125129699707	57.0	1.0	4.298141002655029	Hammer_throw/v_Hammer_throw_id_z2hEIeq_m3Q_start_38.5_label_1.mp4
276.009220123291	2.000670909881592	42.0	1.0	1.299583911895752	Doing_motocross/v_Doing_motocross_id_JLNn5OtzXiw_start_1.0_label_1.mp4
280.00913310050964	2.0169150829315186	41.0	1.0	0.7472720146179199	Doing_kickboxing/v_Doing_kickboxing_id_rqGjuyHuXRw_start_50.0_label_1.mp4
284.00874614715576	2.017303943634033	129.0	-1.0	1.0594749450683594	Rollerblading/v_Rollerblading_id_W7QdnpiAiFs_start_9.0_label_1.mp4
288.0083980560303	2.0170960426330566	13.0	-1.0	1.9758319854736328	Braiding_hair/v_Braiding_hair_id_p3uM-YNQwj0_start_69.5_label_1.mp4
292.0247731208801	2.017058849334717	159.0	-1.0	1.059593915939331	Trimming_branches_or_hedges/v_Trimming_branches_or_hedges_id_ZBQChWP-jTk_start_19.5_label_1.mp4
