onset	duration	trial_type	response	response_time	stim_file
12.015505075454712	2.0833418369293213	122.0	-1.0	0.6342558860778809	Putting_on_makeup/v_Putting_on_makeup_id_zPuRc9ZiHYo_start_46.5_label_1.mp4
16.01485800743103	2.000624895095825	138.0	-1.0	0.6378469467163086	Shuffleboard/v_Shuffleboard_id_OOgRRys3Fwk_start_6.0_label_1.mp4
20.01447892189026	2.0006580352783203	7.0	-1.0	0.7502598762512207	Bathing_dog/v_Bathing_dog_id_HE0EZhtaoGw_start_2.0_label_1.mp4
24.0141830444336	2.000718832015991	22.0	1.0	0.7265558242797852	Canoeing/v_Canoeing_id_XYRVfty5gpc_start_15.5_label_1.mp4
28.01382803916931	2.033942937850952	129.0	-1.0	0.5337700843811035	Rollerblading/v_Rollerblading_id_MhOeA1x-5LU_start_31.0_label_1.mp4
36.013131856918335	2.000357151031494	126.0	-1.0	0.679650068283081	Riding_bumper_cars/v_Riding_bumper_cars_id_ndifytyywaE_start_3.0_label_1.mp4
40.01285195350647	2.0007529258728027	93.0	1.0	0.6879470348358154	Playing_badminton/v_Playing_badminton_id_9-3u4IkjB2o_start_10.0_label_1.mp4
44.01248002052307	2.000504970550537	1.0	1.0	0.7764530181884766	Archery/v_Archery_id_es_Qgbrf9CY_start_10.0_label_1.mp4
48.01219987869263	2.000730037689209	13.0	-1.0	0.5845389366149902	Braiding_hair/v_Braiding_hair_id_stOFU7-UeH8_start_146.0_label_1.mp4
52.01183485984802	2.0007781982421875	116.0	-1.0	0.5369338989257812	Polishing_forniture/v_Polishing_forniture_id_ExNhTXZSvf4_start_34.0_label_1.mp4
60.01117300987244	2.0005040168762207	59.0	-1.0	0.3856029510498047	Hand_washing_clothes/v_Hand_washing_clothes_id_F15oQMK3zoI_start_43.5_label_1.mp4
64.01077604293823	2.033586025238037	119.0	-1.0	0.4571640491485595	Preparing_pasta/v_Preparing_pasta_id_YSBOszBMc-4_start_86.0_label_1.mp4
68.01045608520508	2.000598907470703	56.0	-1.0	0.7222888469696045	Grooming_horse/v_Grooming_horse_id_aE7DMtPuYd0_start_67.5_label_1.mp4
72.01011490821838	2.000653028488159	112.0	1.0	0.6506321430206299	Playing_squash/v_Playing_squash_id_VNfvXuW9O1U_start_96.0_label_1.mp4
76.0098009109497	2.0171151161193848	107.0	1.0	0.6985130310058594	Playing_polo/v_Playing_polo_id_qfUoMcaAxAw_start_4.5_label_1.mp4
84.00913906097412	2.000870943069458	167.0	1.0	0.0005910396575927	Using_the_rowing_machine/v_Using_the_rowing_machine_id_zJKedNWsZKY_start_49.0_label_1.mp4
88.00878190994263	2.0171680450439453	70.0	1.0	0.6514759063720703	Javelin_throw/v_Javelin_throw_id_juH8YUlOMTg_start_15.0_label_1.mp4
92.00843691825868	1.999999046325684	135.0	-1.0	0.5488920211791992	Shaving/v_Shaving_id_GKTOG06Of60_start_61.5_label_1.mp4
96.0081079006195	2.0171539783477783	41.0	1.0	0.4600758552551269	Doing_kickboxing/v_Doing_kickboxing_id_1UgiYiobd4o_start_40.5_label_1.mp4
100.00781202316284	2.0167999267578125	32.0	1.0	0.4527390003204345	Croquet/v_Croquet_id_eJuvzAA6oDk_start_64.0_label_1.mp4
108.02380299568176	1.984010934829712	89.0	1.0	0.7497949600219727	Ping-pong/v_Ping-pong_id_Bj8KNOJedOc_start_110.0_label_1.mp4
112.02346587181091	2.0003740787506104	154.0	-1.0	0.6214439868927002	Swinging_at_the_playground/v_Swinging_at_the_playground_id_3Le0eDco-eU_start_41.0_label_1.mp4
116.0232319831848	2.000473022460937	146.0	1.0	0.8777689933776855	Snowboarding/v_Snowboarding_id_X4PdGBhL8mI_start_3.0_label_1.mp4
120.02275490760805	2.0002520084381104	76.0	1.0	0.6782069206237793	Long_jump/v_Long_jump_id_fqODBiOi7iY_start_4.0_label_1.mp4
124.02284502983092	2.0001819133758545	150.0	-1.0	0.5744280815124512	Starting_a_campfire/v_Starting_a_campfire_id_G4Fg5QwJzaw_start_2.5_label_1.mp4
132.021714925766	2.000365972518921	65.0	-1.0	0.5511250495910645	Horseback_riding/v_Horseback_riding_id_KI-HpGB-A_c_start_87.5_label_1.mp4
136.02144193649292	2.0003890991210938	130.0	1.0	1.3115530014038086	Rope_skipping/v_Rope_skipping_id_zVpKW29itWw_start_146.0_label_1.mp4
140.02109694480896	2.000175952911377	37.0	-1.0	0.703956127166748	Dodgeball/v_Dodgeball_id_c45pT5gWzKM_start_18.0_label_1.mp4
144.02075099945068	2.0002858638763428	90.0	-1.0	0.7524750232696533	Plastering/v_Plastering_id__ANWni_iWIM_start_95.5_label_1.mp4
148.02036094665527	2.000361919403076	30.0	-1.0	0.6566038131713867	Cleaning_windows/v_Cleaning_windows_id_YXvJN6xhd4c_start_7.5_label_1.mp4
156.01975798606873	2.0341250896453857	8.0	-1.0	0.767632007598877	Baton_twirling/v_Baton_twirling_id_qzV1urXlT3A_start_184.5_label_1.mp4
160.01941895484924	2.033674955368042	173.0	-1.0	0.4964208602905273	Washing_dishes/v_Washing_dishes_id_tiiaTq14aRU_start_31.0_label_1.mp4
164.01905703544617	2.0004899501800537	51.0	1.0	0.7138869762420654	Futsal/v_Futsal_id_S5t1iE7U2ZA_start_81.0_label_1.mp4
168.01870799064636	2.0004758834838867	47.0	-1.0	0.5782358646392822	Elliptical_trainer/v_Elliptical_trainer_id_VNYPcvwjFVY_start_3.0_label_1.mp4
172.0182750225067	2.0005669593811035	10.0	-1.0	0.6905739307403564	Beer_pong/v_Beer_pong_id_imL2K4u0uhk_start_62.0_label_1.mp4
180.01769089698792	2.000594139099121	180.0	-1.0	1.2192609310150146	Zumba/v_Zumba_id_oXSInIjHT1I_start_82.5_label_1.mp4
184.01731300354004	2.000908851623535	14.0	-1.0	0.4593088626861572	Breakdancing/v_Breakdancing_id_VMJO5UG2S0U_start_17.0_label_1.mp4
188.0170340538025	2.000464916229248	12.0	-1.0	0.6759359836578369	Blow-drying_hair/v_Blow-drying_hair_id_IrF7aylhfW4_start_146.5_label_1.mp4
192.0166459083557	2.0006799697875977	64.0	n/a	n/a	Hopscotch/v_Hopscotch_id__g_1jUJARFg_start_6.0_label_1.mp4
196.01631999015808	2.0336270332336426	143.0	-1.0	0.0005311965942382	Smoking_hookah/v_Smoking_hookah_id_inZNjuFDBr4_start_51.5_label_1.mp4
204.01563000679016	2.0004360675811768	148.0	-1.0	0.7733039855957031	Spread_mulch/v_Spread_mulch_id_7dlkshlM4nk_start_18.5_label_1.mp4
208.0153288841248	2.000667095184326	169.0	-1.0	0.7096810340881348	Vacuuming_floor/v_Vacuuming_floor_id_DcvGWz7Jq5E_start_50.0_label_1.mp4
212.01495099067688	2.0006840229034424	172.0	-1.0	0.8219609260559082	Walking_the_dog/v_Walking_the_dog_id_k4xbHRtfMgg_start_3.0_label_1.mp4
216.01459789276123	2.000638008117676	58.0	-1.0	0.6303200721740723	Hand_car_wash/v_Hand_car_wash_id_R4zcckrGPwo_start_139.0_label_1.mp4
220.01427698135376	2.000602960586548	46.0	-1.0	1.126760959625244	Drum_corps/v_Drum_corps_id_CAascIFN0fU_start_12.0_label_1.mp4
228.01361989974976	2.000533103942871	23.0	1.0	0.5754930973052979	Capoeira/v_Capoeira_id_onum9Ip73Xc_start_46.0_label_1.mp4
232.0132749080658	2.000883102416992	153.0	-1.0	0.9836559295654296	Swimming/v_Swimming_id_g3kE-4Jha1s_start_173.0_label_1.mp4
236.01296186447144	2.000620126724243	165.0	-1.0	0.8000900745391846	Using_the_monkey_bar/v_Using_the_monkey_bar_id_a5xFpkaXt0Y_start_22.5_label_1.mp4
240.01260590553284	2.0170199871063232	57.0	1.0	0.7117960453033447	Hammer_throw/v_Hammer_throw_id_4fwIEWpTBRw_start_3.5_label_1.mp4
244.01224899291992	2.0005900859832764	125.0	-1.0	0.5368030071258545	Raking_leaves/v_Raking_leaves_id_uvi4K8SrqT0_start_41.0_label_1.mp4
252.01163697242737	2.0008299350738525	140.0	1.0	0.4653429985046386	Skiing/v_Skiing_id_sdNZxOmiads_start_0.5_label_1.mp4
256.0112340450287	2.0168709754943848	66.0	-1.0	0.6815080642700195	Hula_hoop/v_Hula_hoop_id_lnEuJl9u6GM_start_63.5_label_1.mp4
260.0109679698944	2.0006980895996094	157.0	-1.0	0.7621359825134277	Tango/v_Tango_id_pDHYkjBK8AY_start_8.0_label_1.mp4
264.01054286956787	2.000460147857666	67.0	-1.0	0.7785871028900146	Hurling/v_Hurling_id_Dh3r6tHK-UE_start_8.5_label_1.mp4
268.0102529525757	2.000236988067627	155.0	-1.0	0.6432230472564697	Table_soccer/v_Table_soccer_id_3LdliIGVEMU_start_14.0_label_1.mp4
276.0095360279083	2.0170738697052	40.0	1.0	0.634833812713623	Doing_karate/v_Doing_karate_id_As4R8bIr_fM_start_124.5_label_1.mp4
280.0092239379883	2.0003490447998047	94.0	-1.0	0.644218921661377	Playing_bagpipes/v_Playing_bagpipes_id_4qiCGTeut3I_start_101.0_label_1.mp4
284.008887052536	2.0506668090820312	142.0	-1.0	0.778019905090332	Smoking_a_cigarette/v_Smoking_a_cigarette_id_0RRO6SNo-Tw_start_11.5_label_1.mp4
288.00859808921814	2.016779899597168	132.0	1.0	1.7162091732025146	Sailing/v_Sailing_id_TswTIGCX7lw_start_47.0_label_1.mp4
292.00834488868713	2.01705002784729	91.0	-1.0	0.7881569862365723	Plataform_diving/v_Plataform_diving_id_1V9CnOPR9uc_start_6.5_label_1.mp4
