onset	duration	trial_type	response	response_time	stim_file
12.01529097557068	2.067268848419189	146.0	1.0	0.3421809673309326	Snowboarding/v_Snowboarding_id_BE6w5vst-jg_start_15.0_label_1.mp4
16.01498579978943	2.033776998519897	52.0	-1.0	0.407938003540039	Getting_a_haircut/v_Getting_a_haircut_id_0_gLcbMt10U_start_19.5_label_1.mp4
20.014646768569943	2.033846139907837	50.0	-1.0	0.0007190704345703	Fun_sliding_down/v_Fun_sliding_down_id_Ils-V3mBWRE_start_55.5_label_1.mp4
24.01426196098328	2.0006179809570312	142.0	-1.0	0.4739449024200439	Smoking_a_cigarette/v_Smoking_a_cigarette_id_0xeu3Zr0buQ_start_5.5_label_1.mp4
28.0139319896698	2.000530958175659	70.0	1.0	0.3783018589019775	Javelin_throw/v_Javelin_throw_id_rr2JWn55RDw_start_2.5_label_1.mp4
36.01330590248108	2.000535011291504	177.0	-1.0	0.3949451446533203	Welding/v_Welding_id__u8Ki55RSlE_start_75.5_label_1.mp4
40.01291990280152	2.000731945037842	27.0	1.0	0.3952031135559082	Clean_and_jerk/v_Clean_and_jerk_id_a1Ck9cL1Tds_start_7.5_label_1.mp4
44.01257681846619	2.0006580352783203	39.0	1.0	0.4676167964935303	Doing_fencing/v_Doing_fencing_id_-2A7wXLkf98_start_75.0_label_1.mp4
48.01230597496033	2.0005528926849365	14.0	-1.0	0.4199011325836181	Breakdancing/v_Breakdancing_id_SjvNDpSY500_start_120.0_label_1.mp4
52.0119218826294	2.000598907470703	6.0	1.0	0.388261079788208	Ballet/v_Ballet_id_7llyQ13AQJ4_start_63.0_label_1.mp4
60.01121592521668	2.000614881515503	107.0	1.0	0.2209870815277099	Playing_polo/v_Playing_polo_id_HYk9ytrq0s8_start_22.0_label_1.mp4
64.01090097427368	2.000438928604126	65.0	1.0	1.0054199695587158	Horseback_riding/v_Horseback_riding_id_YD1bk3I722E_start_73.5_label_1.mp4
68.01054692268372	2.017076015472412	130.0	1.0	0.4210708141326904	Rope_skipping/v_Rope_skipping_id_ya5Kf2p6ewk_start_86.0_label_1.mp4
72.01017498970032	2.000505924224853	9.0	1.0	0.4140410423278808	Beach_soccer/v_Beach_soccer_id_rNHh8cecp9U_start_66.0_label_1.mp4
76.00985789299011	2.0504488945007324	12.0	-1.0	0.4444448947906494	Blow-drying_hair/v_Blow-drying_hair_id_9otdeavtp3c_start_152.5_label_1.mp4
84.00921893119812	2.0004329681396484	163.0	1.0	0.3990719318389892	Using_parallel_bars/v_Using_parallel_bars_id_eLI7t-5wHno_start_121.5_label_1.mp4
88.00884485244751	2.0171380043029785	145.0	-1.0	0.4388270378112793	Snow_tubing/v_Snow_tubing_id_qhUcZnCyH9Y_start_27.0_label_1.mp4
92.00847792625429	2.0171689987182617	25.0	-1.0	0.3430972099304199	Cheerleading/v_Cheerleading_id_7qghNHhUi2Y_start_7.0_label_1.mp4
96.00813698768616	2.017176866531372	123.0	-1.0	0.3754918575286865	Putting_on_shoes/v_Putting_on_shoes_id_21JNfqA9jI8_start_23.5_label_1.mp4
100.0078067779541	2.017177104949951	28.0	-1.0	1.0318150520324707	Cleaning_shoes/v_Cleaning_shoes_id_m7gFyN6HxWc_start_72.0_label_1.mp4
108.02383494377136	1.9840309619903564	29.0	-1.0	0.3531560897827148	Cleaning_sink/v_Cleaning_sink_id_Y54geWUZ3ik_start_37.0_label_1.mp4
112.00629377365112	2.017644166946411	127.0	-1.0	0.7687478065490723	Rock_climbing/v_Rock_climbing_id_4KLhLIXT0FA_start_46.5_label_1.mp4
116.02313899993896	2.0004658699035645	149.0	1.0	0.3610758781433105	Springboard_diving/v_Springboard_diving_id_Yaxd-3J0cPQ_start_103.0_label_1.mp4
120.02280187606812	2.0000720024108887	66.0	-1.0	0.6418628692626953	Hula_hoop/v_Hula_hoop_id_zwMBG-xRP_Y_start_93.0_label_1.mp4
124.02249383926392	2.000425100326538	40.0	1.0	0.921795129776001	Doing_karate/v_Doing_karate_id_jnWGVggb4qM_start_28.0_label_1.mp4
132.02178192138672	2.0000898838043213	179.0	-1.0	0.3789520263671875	Wrapping_presents/v_Wrapping_presents_id_Nsdc4XeVjlY_start_164.5_label_1.mp4
136.02141284942627	2.00051212310791	74.0	-1.0	0.4508748054504394	Knitting/v_Knitting_id_qYGASrZE0r4_start_143.0_label_1.mp4
140.0216188430786	2.000007152557373	150.0	-1.0	0.7712171077728271	Starting_a_campfire/v_Starting_a_campfire_id_WwQmy_aYbM8_start_112.5_label_1.mp4
144.02076482772827	2.00045108795166	125.0	-1.0	0.7155101299285889	Raking_leaves/v_Raking_leaves_id_V6aTMVvX8aM_start_16.0_label_1.mp4
148.02041387557983	2.001099109649658	170.0	1.0	1.0834109783172607	Volleyball/v_Volleyball_id_WBNer_en8LM_start_3.5_label_1.mp4
156.01988697052002	2.0003199577331543	96.0	-1.0	0.3805642127990722	Playing_blackjack/v_Playing_blackjack_id_sKoO51wNMR8_start_40.5_label_1.mp4
160.01991176605225	2.00019907951355	169.0	-1.0	0.5328109264373779	Vacuuming_floor/v_Vacuuming_floor_id_fqb42R_4grI_start_5.5_label_1.mp4
164.01904487609863	2.0006439685821533	155.0	-1.0	0.4212260246276855	Table_soccer/v_Table_soccer_id_FqIwEAljAcM_start_38.0_label_1.mp4
168.01873397827148	2.001220941543579	122.0	-1.0	0.5409958362579346	Putting_on_makeup/v_Putting_on_makeup_id_w4PXf5tsTb0_start_120.5_label_1.mp4
172.01840090751648	2.000662088394165	90.0	-1.0	0.8698399066925049	Plastering/v_Plastering_id_zsUMflGFHns_start_151.5_label_1.mp4
180.01772499084473	2.0005528926849365	72.0	1.0	0.6625709533691406	Kite_flying/v_Kite_flying_id_sUesg6ERZmM_start_213.0_label_1.mp4
184.01741099357605	2.000657796859741	134.0	-1.0	0.398975133895874	Sharpening_knives/v_Sharpening_knives_id_R6gbMnu4c1I_start_57.5_label_1.mp4
188.01709985733032	2.0007030963897705	117.0	-1.0	0.4071049690246582	Polishing_shoes/v_Polishing_shoes_id_KV2DI2sQPb8_start_142.0_label_1.mp4
192.0167479515076	2.000682830810547	101.0	-1.0	0.4395468235015869	Playing_guitarra/v_Playing_guitarra_id_aUwGU1YX0zs_start_3.0_label_1.mp4
196.0164008140564	2.0002970695495605	180.0	-1.0	0.8319640159606934	Zumba/v_Zumba_id_evtrANxjzGc_start_33.0_label_1.mp4
204.0157399177552	2.0006439685821533	3.0	-1.0	0.3765790462493896	Assembling_bicycle/v_Assembling_bicycle_id_wEA-2ebch6E_start_8.0_label_1.mp4
208.01544785499573	2.00022292137146	178.0	1.0	0.4489979743957519	Windsurfing/v_Windsurfing_id_Z3vxObKklTA_start_36.0_label_1.mp4
212.01503682136536	2.017059087753296	120.0	-1.0	0.3846909999847412	Preparing_salad/v_Preparing_salad_id_U3SVAQKxbhY_start_50.0_label_1.mp4
216.01467084884644	2.000582933425904	7.0	-1.0	0.8016660213470459	Bathing_dog/v_Bathing_dog_id_VeJ8TxgbQ0A_start_72.0_label_1.mp4
220.01436591148376	2.0006558895111084	64.0	1.0	0.4339728355407715	Hopscotch/v_Hopscotch_id_U-j-jDTyVWM_start_1.0_label_1.mp4
228.01366186141968	2.000433921813965	91.0	-1.0	0.354727029800415	Plataform_diving/v_Plataform_diving_id_ns_b0TpMlMc_start_10.0_label_1.mp4
232.013365983963	2.000532865524292	110.0	-1.0	0.4268789291381836	Playing_rubik_cube/v_Playing_rubik_cube_id_NX82lkwV88Y_start_3.0_label_1.mp4
236.0130259990692	2.000805854797364	133.0	1.0	1.3953299522399902	Scuba_diving/v_Scuba_diving_id_ybzfAhsqAAw_start_43.0_label_1.mp4
240.0126798152924	2.000549077987671	19.0	-1.0	0.4115879535675049	Bungee_jumping/v_Bungee_jumping_id_YIRRjEFu7J0_start_97.5_label_1.mp4
244.0123028755188	2.000577926635742	11.0	1.0	0.30000901222229	Belly_dance/v_Belly_dance_id_M9BLDiFGXSA_start_21.0_label_1.mp4
252.01163983345032	2.0003020763397217	55.0	-1.0	0.4447600841522217	Grooming_dog/v_Grooming_dog_id_jUUiFqT26JM_start_64.5_label_1.mp4
256.0113677978516	1.999986171722412	78.0	-1.0	0.8295340538024902	Making_a_cake/v_Making_a_cake_id_9PNviVHKYuM_start_67.0_label_1.mp4
260.01102685928345	2.000459909439087	61.0	-1.0	0.3573980331420898	Having_an_ice_cream/v_Having_an_ice_cream_id_gGA3kRll4gg_start_14.5_label_1.mp4
264.01065492630005	2.01697301864624	131.0	1.0	0.5411679744720459	Running_a_marathon/v_Running_a_marathon_id_s4lHNcD5SSI_start_2.5_label_1.mp4
268.01037192344666	2.000279903411865	124.0	1.0	0.4463529586791992	Rafting/v_Rafting_id_4uBbMSdKzoA_start_35.5_label_1.mp4
276.00960087776184	2.0005760192871094	168.0	1.0	0.3827838897705078	Using_uneven_bars/v_Using_uneven_bars_id_Q_rzCF8v0hA_start_16.5_label_1.mp4
280.0093228816986	2.000178098678589	41.0	1.0	0.5275299549102783	Doing_kickboxing/v_Doing_kickboxing_id__L_XdfVRMYs_start_49.0_label_1.mp4
284.0089888572693	2.017117977142334	166.0	1.0	0.7747468948364258	Using_the_pommel_horse/v_Using_the_pommel_horse_id_MXoZm-ZLjsc_start_49.5_label_1.mp4
288.0089659690857	2.016786813735962	118.0	1.0	1.3192040920257568	Powerbocking/v_Powerbocking_id_B4g9w6d4b_0_start_19.0_label_1.mp4
292.00832295417786	2.017102003097534	175.0	1.0	0.5514898300170898	Waterskiing/v_Waterskiing_id_t-2z97mBSrI_start_111.0_label_1.mp4
