onset	duration	trial_type	response	response_time	stim_file
12.015265941619871	2.033622980117798	46.0	-1.0	0.7598109245300293	Drum_corps/v_Drum_corps_id_e3arbzeKprU_start_37.0_label_1.mp4
16.014925956726074	2.000756025314331	87.0	-1.0	0.5854001045227051	Painting_fence/v_Painting_fence_id_LBOU8PzuJwQ_start_39.0_label_1.mp4
20.0144910812378	2.000374794006348	131.0	1.0	0.7218520641326904	Running_a_marathon/v_Running_a_marathon_id_bRrL8tNkf8c_start_31.5_label_1.mp4
24.01427006721497	2.0014538764953613	147.0	1.0	0.585442066192627	Spinning/v_Spinning_id_feCziUw13mk_start_101.0_label_1.mp4
28.013951063156128	2.033773899078369	129.0	1.0	1.521191120147705	Rollerblading/v_Rollerblading_id_AxxOUZ3gBVU_start_21.5_label_1.mp4
36.01328206062317	2.000314950942993	128.0	-1.0	0.8032422065734863	Rock-paper-scissors/v_Rock-paper-scissors_id_dVCAykynRzs_start_35.0_label_1.mp4
40.01291990280152	2.000485181808472	150.0	-1.0	0.6915931701660156	Starting_a_campfire/v_Starting_a_campfire_id_IYI2JLcazmA_start_11.0_label_1.mp4
44.01255702972412	1.9999959468841555	67.0	1.0	0.924299955368042	Hurling/v_Hurling_id_1Qko5-Z_IRo_start_7.0_label_1.mp4
48.01225805282593	2.033797025680542	52.0	-1.0	0.6429529190063477	Getting_a_haircut/v_Getting_a_haircut_id_01mJo5v-9tw_start_56.0_label_1.mp4
52.01182293891907	2.0002360343933105	102.0	-1.0	0.6130549907684326	Playing_harmonica/v_Playing_harmonica_id_rz_hlLi53R4_start_34.5_label_1.mp4
60.01119995117188	1.999979019165039	133.0	1.0	0.7496390342712402	Scuba_diving/v_Scuba_diving_id_TdrMaVH3NWQ_start_62.0_label_1.mp4
64.0108630657196	2.000370979309082	71.0	1.0	0.7415878772735596	Kayaking/v_Kayaking_id_zrPeNQONy_E_start_154.0_label_1.mp4
68.01050400733948	2.000530958175659	112.0	1.0	0.709881067276001	Playing_squash/v_Playing_squash_id_QMDOTjnQags_start_22.0_label_1.mp4
72.0101568698883	2.0002920627593994	20.0	1.0	1.590497970581055	Calf_roping/v_Calf_roping_id_LhSU6U3tSiI_start_5.0_label_1.mp4
76.00960397720337	2.00049901008606	176.0	-1.0	0.7987761497497559	Waxing_skis/v_Waxing_skis_id_Kys5Y2vW_uk_start_181.0_label_1.mp4
84.00916504859924	2.0007150173187256	42.0	1.0	0.7351260185241699	Doing_motocross/v_Doing_motocross_id_sn7HTK-I7Lc_start_8.5_label_1.mp4
88.00884985923767	2.016911029815674	40.0	-1.0	0.8231961727142334	Doing_karate/v_Doing_karate_id_OGTlrCnhELw_start_43.5_label_1.mp4
92.00854086875916	2.050432205200196	19.0	-1.0	0.9419441223144532	Bungee_jumping/v_Bungee_jumping_id_oS9WhuYz-kU_start_158.5_label_1.mp4
96.00818586349487	2.0170822143554688	83.0	-1.0	0.9517250061035156	Mooping_floor/v_Mooping_floor_id_Qyp0zqhxNiM_start_183.5_label_1.mp4
100.00785994529724	2.0169060230255127	94.0	-1.0	0.7119879722595215	Playing_bagpipes/v_Playing_bagpipes_id_iWTgDYAC2LI_start_38.0_label_1.mp4
108.00680494308472	2.0006520748138428	25.0	1.0	0.7293751239776611	Cheerleading/v_Cheerleading_id_1Q5iDTUs75A_start_25.0_label_1.mp4
112.00674986839294	2.017006158828736	68.0	-1.0	0.921140193939209	Ice_fishing/v_Ice_fishing_id_mx_snAn7mk4_start_42.0_label_1.mp4
116.02310705184937	2.000560998916626	99.0	1.0	0.6493000984191895	Playing_field_hockey/v_Playing_field_hockey_id_0ARP-ueWS5k_start_2.5_label_1.mp4
120.02276706695557	2.000680923461914	156.0	-1.0	0.6336829662322998	Tai_chi/v_Tai_chi_id_Krb9qA3-4DQ_start_68.5_label_1.mp4
124.02245903015135	2.000455856323242	136.0	1.0	0.8180749416351318	Shot_put/v_Shot_put_id_MxjQrtBTV98_start_10.0_label_1.mp4
132.02224588394165	1.9836220741271973	110.0	-1.0	0.7233190536499023	Playing_rubik_cube/v_Playing_rubik_cube_id_xQJd1M2ylSc_start_58.5_label_1.mp4
136.02145886421204	2.000671148300171	169.0	-1.0	0.6989939212799072	Vacuuming_floor/v_Vacuuming_floor_id_tm__aOuHYlY_start_135.0_label_1.mp4
140.02109694480896	2.0004379749298096	48.0	-1.0	0.8834249973297119	Fixing_bicycle/v_Fixing_bicycle_id_1vaRujUZw7M_start_31.5_label_1.mp4
144.0207860469818	2.0006818771362305	139.0	1.0	0.7158341407775879	Skateboarding/v_Skateboarding_id_o6IWJLckpBE_start_44.5_label_1.mp4
148.02050304412842	2.000416040420532	114.0	1.0	0.612138032913208	Playing_water_polo/v_Playing_water_polo_id_Q-pAgQrxrOQ_start_108.5_label_1.mp4
156.01981592178345	2.000352144241333	124.0	-1.0	0.4608910083770752	Rafting/v_Rafting_id_sulcFFtGVI4_start_6.0_label_1.mp4
160.01942086219788	2.000119209289551	93.0	1.0	0.7413358688354492	Playing_badminton/v_Playing_badminton_id_H8MUtGmm9K8_start_6.5_label_1.mp4
164.01911187171936	2.0003981590271	70.0	1.0	0.7415561676025391	Javelin_throw/v_Javelin_throw_id_HPmVnoDYbII_start_2.5_label_1.mp4
168.01877188682556	2.0005030632019043	171.0	1.0	0.7177391052246094	Wakeboarding/v_Wakeboarding_id_LT6gAfYTQH0_start_22.0_label_1.mp4
172.01840496063232	2.0004429817199707	123.0	n/a	n/a	Putting_on_shoes/v_Putting_on_shoes_id_6YcBJY29Ju4_start_28.5_label_1.mp4
180.01771092414856	2.000462055206299	55.0	-1.0	0.6548280715942383	Grooming_dog/v_Grooming_dog_id_g8sIj4HmQjk_start_102.0_label_1.mp4
184.0174350738525	2.00036883354187	138.0	-1.0	0.6391890048980713	Shuffleboard/v_Shuffleboard_id_u1ByrkqGphg_start_33.5_label_1.mp4
188.0171010494232	2.0001978874206543	56.0	-1.0	0.6476819515228271	Grooming_horse/v_Grooming_horse_id_MEGxr9xqh_w_start_36.0_label_1.mp4
192.0167479515076	2.0004050731658936	66.0	1.0	0.6959669589996338	Hula_hoop/v_Hula_hoop_id_I8yXSHwO8do_start_12.5_label_1.mp4
196.01647806167605	2.0002119541168213	95.0	1.0	0.7202789783477783	Playing_beach_volleyball/v_Playing_beach_volleyball_id_hVRwYIV4Uzw_start_45.0_label_1.mp4
204.01569294929504	2.0005900859832764	100.0	-1.0	0.6407670974731445	Playing_flauta/v_Playing_flauta_id_UTqmUVkqktg_start_42.5_label_1.mp4
208.0154130458832	2.0004379749298096	168.0	1.0	0.8413560390472412	Using_uneven_bars/v_Using_uneven_bars_id_fsVaQjNP8KI_start_5.5_label_1.mp4
212.01506400108337	2.0006260871887207	151.0	1.0	0.9453530311584472	Sumo/v_Sumo_id_JxiyYvStoso_start_15.0_label_1.mp4
216.01472806930545	2.0009658336639404	155.0	-1.0	0.6015889644622803	Table_soccer/v_Table_soccer_id_D-XE8BB3Jko_start_28.5_label_1.mp4
220.01437401771545	2.0005228519439697	44.0	1.0	0.7222938537597656	Doing_step_aerobics/v_Doing_step_aerobics_id_S7M_PY4llPM_start_20.0_label_1.mp4
228.01378989219663	2.0003421306610107	18.0	1.0	0.658909797668457	Bullfighting/v_Bullfighting_id_cPSxsLQ9R2s_start_45.5_label_1.mp4
232.0134909152985	2.000298023223877	14.0	-1.0	1.003499984741211	Breakdancing/v_Breakdancing_id_rpn-URwX8X8_start_35.0_label_1.mp4
236.01307201385487	2.0005979537963867	116.0	-1.0	0.7074041366577148	Polishing_forniture/v_Polishing_forniture_id_gXQbCE1rYjU_start_3.0_label_1.mp4
240.0127248764038	2.0003340244293213	75.0	-1.0	0.763983964920044	Laying_tile/v_Laying_tile_id_faNGKZOlro4_start_117.0_label_1.mp4
244.0123679637909	2.000931978225708	23.0	1.0	0.8678209781646729	Capoeira/v_Capoeira_id_grcrCH6yQ34_start_12.5_label_1.mp4
252.0117309093476	2.0006251335144043	179.0	-1.0	0.4369230270385742	Wrapping_presents/v_Wrapping_presents_id_YIzApNco6ZA_start_87.0_label_1.mp4
256.0113830566406	2.000119924545288	165.0	1.0	0.669715166091919	Using_the_monkey_bar/v_Using_the_monkey_bar_id_0KwmMW_WjJU_start_5.5_label_1.mp4
260.0110149383545	2.0005929470062256	57.0	1.0	0.8059051036834717	Hammer_throw/v_Hammer_throw_id_DBfrfXuOgbI_start_7.0_label_1.mp4
264.01067090034485	2.017047166824341	82.0	-1.0	0.7255828380584717	Mixing_drinks/v_Mixing_drinks_id_ikFrpFgTQI4_start_109.5_label_1.mp4
268.0103659629822	2.050416946411133	37.0	1.0	0.6843490600585938	Dodgeball/v_Dodgeball_id_-kOPyoTCH94_start_59.0_label_1.mp4
276.0096728801728	2.0338261127471924	62.0	1.0	1.1416559219360352	High_jump/v_High_jump_id_wRA5W_EzeN8_start_123.5_label_1.mp4
280.0094060897827	2.000462770462036	5.0	-1.0	1.0552377700805664	Baking_cookies/v_Baking_cookies_id_D0x8cFOAIMI_start_154.5_label_1.mp4
284.0090069770813	2.0170669555664062	152.0	1.0	1.1910650730133057	Surfing/v_Surfing_id_HlXqiTS70Gk_start_137.0_label_1.mp4
288.0086579322815	2.017307996749878	76.0	1.0	0.6871140003204346	Long_jump/v_Long_jump_id_6oxP5rVkSwQ_start_14.5_label_1.mp4
292.0084910392761	2.01695203781128	69.0	-1.0	0.727708101272583	Ironing_clothes/v_Ironing_clothes_id_R0_nZk6R4Wc_start_140.0_label_1.mp4
