onset	duration	trial_type	response	response_time	stim_file
12.015239953994753	2.0671989917755127	51.0	1.0	0.68727707862854	Futsal/v_Futsal_id_rRLjQmaT35s_start_14.0_label_1.mp4
16.01494598388672	2.0004029273986816	31.0	-1.0	0.7063210010528564	Cricket/v_Cricket_id_dMeupGoRmJU_start_85.0_label_1.mp4
20.014249086380005	2.0344009399414062	101.0	-1.0	0.8253738880157471	Playing_guitarra/v_Playing_guitarra_id__QeXnJxCMtA_start_54.5_label_1.mp4
24.014230966568	2.000481128692627	92.0	-1.0	0.8269929885864258	Playing_accordion/v_Playing_accordion_id_smQUkgR1EN8_start_73.5_label_1.mp4
28.01392912864685	2.000389814376831	134.0	-1.0	0.6754260063171387	Sharpening_knives/v_Sharpening_knives_id_rsxmjd1e6s4_start_42.5_label_1.mp4
36.0132200717926	2.000520944595337	108.0	-1.0	0.6040339469909668	Playing_pool/v_Playing_pool_id_D4jF2xV3RZ0_start_14.5_label_1.mp4
40.0129120349884	2.000593900680542	91.0	1.0	0.764369010925293	Plataform_diving/v_Plataform_diving_id_VTwuaJ2coko_start_71.0_label_1.mp4
44.01260399818421	2.0004000663757324	167.0	1.0	0.6207568645477295	Using_the_rowing_machine/v_Using_the_rowing_machine_id__OY-1VtINQQ_start_45.0_label_1.mp4
48.012279987335205	2.0005290508270264	30.0	-1.0	0.6611900329589844	Cleaning_windows/v_Cleaning_windows_id_41pik8L7ZHk_start_18.0_label_1.mp4
52.01190996170044	2.0334949493408203	146.0	1.0	0.6685619354248047	Snowboarding/v_Snowboarding_id_xrhVJ6ruXpQ_start_150.5_label_1.mp4
60.01119804382324	2.0003209114074707	142.0	-1.0	1.0300869941711426	Smoking_a_cigarette/v_Smoking_a_cigarette_id_5j44TbFVLFU_start_10.0_label_1.mp4
64.01087999343872	2.0003650188446045	148.0	-1.0	0.5424728393554688	Spread_mulch/v_Spread_mulch_id_jEzya8zXkmk_start_40.5_label_1.mp4
68.01056003570557	2.0004429817199707	117.0	-1.0	0.5428791046142578	Polishing_shoes/v_Polishing_shoes_id_bkVxmGmmu6E_start_187.0_label_1.mp4
72.01017594337463	2.0170340538024902	36.0	1.0	0.7905101776123047	Discus_throw/v_Discus_throw_id_01egZS1plDc_start_61.5_label_1.mp4
76.00988602638245	2.017124891281128	118.0	1.0	0.750885009765625	Powerbocking/v_Powerbocking_id_aCkmjvWxFt8_start_70.0_label_1.mp4
84.00913596153259	2.000509023666382	143.0	-1.0	0.8882040977478027	Smoking_hookah/v_Smoking_hookah_id_aeZalxPGM6o_start_29.0_label_1.mp4
88.0088939666748	2.017076015472412	140.0	1.0	0.807823896408081	Skiing/v_Skiing_id_wIpkBPBpnbA_start_14.5_label_1.mp4
92.00850296020508	2.01712703704834	103.0	1.0	0.800184965133667	Playing_ice_hockey/v_Playing_ice_hockey_id_h3re-Ym1C6U_start_56.5_label_1.mp4
96.00819706916808	2.017163038253784	22.0	1.0	0.7764811515808105	Canoeing/v_Canoeing_id_zLmlXjr7zJk_start_71.5_label_1.mp4
100.0078101158142	2.017086982727051	132.0	1.0	1.104931116104126	Sailing/v_Sailing_id_wD5GPBoCvxo_start_10.0_label_1.mp4
108.0071759223938	2.000432014465332	109.0	1.0	0.8662312030792236	Playing_racquetball/v_Playing_racquetball_id_-3Odlj_vFDA_start_15.5_label_1.mp4
112.00678396224976	2.0169670581817627	16.0	-1.0	0.9859590530395508	Brushing_teeth/v_Brushing_teeth_id_I0lHSG1KrA0_start_86.5_label_1.mp4
116.02311205863953	2.0004918575286865	43.0	-1.0	1.0582609176635742	Doing_nails/v_Doing_nails_id_C3nI4quDByA_start_143.0_label_1.mp4
120.02282500267027	2.000550985336304	120.0	-1.0	0.898576021194458	Preparing_salad/v_Preparing_salad_id_FuKDMAlsfkw_start_100.0_label_1.mp4
124.02249908447266	2.00037693977356	65.0	1.0	0.0005719661712646	Horseback_riding/v_Horseback_riding_id_u3CNENJF-70_start_100.0_label_1.mp4
132.0217831134796	1.983316898345948	35.0	-1.0	0.6446809768676758	Disc_dog/v_Disc_dog_id_QcNtEy-4rnU_start_8.0_label_1.mp4
136.02138996124268	2.000494956970215	9.0	1.0	0.6919372081756592	Beach_soccer/v_Beach_soccer_id_hmzNeNA2nms_start_21.5_label_1.mp4
140.0211100578308	2.000469923019409	125.0	-1.0	0.8923540115356445	Raking_leaves/v_Raking_leaves_id_u1BQ5l48jzk_start_33.0_label_1.mp4
144.020770072937	2.000308990478516	88.0	-1.0	0.7726960182189941	Painting_furniture/v_Painting_furniture_id_zp-R43UtIJQ_start_92.0_label_1.mp4
148.0204200744629	2.000607967376709	34.0	-1.0	4.341009140014648	Decorating_the_Christmas_tree/v_Decorating_the_Christmas_tree_id_Q12fdw3FadM_start_177.5_label_1.mp4
156.0197229385376	2.000478029251098	10.0	-1.0	0.8777170181274414	Beer_pong/v_Beer_pong_id_2MHMKBPu-X8_start_68.0_label_1.mp4
160.0193989276886	2.000392198562622	15.0	-1.0	0.7581851482391357	Brushing_hair/v_Brushing_hair_id_zsbKZTH6HU4_start_68.0_label_1.mp4
164.01909589767456	2.000448226928711	158.0	1.0	0.9982750415802002	Throwing_darts/v_Throwing_darts_id_Mtn8siQOKD0_start_38.0_label_1.mp4
168.01874995231628	2.0005600452423096	163.0	1.0	0.9027068614959716	Using_parallel_bars/v_Using_parallel_bars_id_ukcH6ugAQoE_start_25.5_label_1.mp4
172.01844096183777	2.0004770755767822	162.0	1.0	3.831063032150269	Tumbling/v_Tumbling_id_B8qNiNsQVNI_start_44.5_label_1.mp4
180.01774191856384	2.033876180648804	177.0	-1.0	0.8784480094909668	Welding/v_Welding_id_t0iBhITCcig_start_30.5_label_1.mp4
184.0175061225891	2.0002098083496094	45.0	-1.0	1.200117111206055	Drinking_coffee/v_Drinking_coffee_id_x9o8HSJm1tU_start_32.0_label_1.mp4
188.01708793640137	2.0004801750183105	17.0	-1.0	0.8403768539428711	Building_sandcastles/v_Building_sandcastles_id_FMnufAFZSDo_start_10.0_label_1.mp4
192.01670789718628	2.0004770755767822	170.0	1.0	0.7526450157165527	Volleyball/v_Volleyball_id_iVNGWvrxzBw_start_30.5_label_1.mp4
196.01641392707825	2.033802032470703	115.0	1.0	0.8956470489501953	Pole_vault/v_Pole_vault_id_W8vkAcyZF3E_start_26.5_label_1.mp4
204.0158131122589	2.0003368854522705	60.0	-1.0	0.87375807762146	Hanging_wallpaper/v_Hanging_wallpaper_id_7W7hgWxGVyU_start_10.5_label_1.mp4
208.01540803909305	2.0340259075164795	111.0	-1.0	0.5686547756195068	Playing_saxophone/v_Playing_saxophone_id_7TsSGsG2jaM_start_91.5_label_1.mp4
212.01509809494016	2.00048303604126	157.0	-1.0	0.9064550399780272	Tango/v_Tango_id_RPIfa61gj74_start_65.5_label_1.mp4
216.0146920681	2.000891923904419	154.0	1.0	0.9067330360412598	Swinging_at_the_playground/v_Swinging_at_the_playground_id_ewxgjROvizk_start_142.0_label_1.mp4
220.0144081115723	2.0005459785461426	122.0	-1.0	0.7070999145507812	Putting_on_makeup/v_Putting_on_makeup_id_rN5QePNMK-I_start_74.0_label_1.mp4
228.0137310028076	2.000554084777832	73.0	1.0	0.819788932800293	Kneeling/v_Kneeling_id_05ljQDuzvKw_start_22.0_label_1.mp4
232.0133969783783	2.000005960464477	174.0	-1.0	1.028458833694458	Washing_hands/v_Washing_hands_id__6HdqbvofN0_start_43.5_label_1.mp4
236.0130820274353	2.000437021255493	49.0	-1.0	1.1244590282440186	Fixing_the_roof/v_Fixing_the_roof_id_qOxJgvWocSY_start_21.0_label_1.mp4
240.01274490356445	2.017184019088745	61.0	-1.0	0.6920959949493408	Having_an_ice_cream/v_Having_an_ice_cream_id_HtY4YVePGgM_start_35.0_label_1.mp4
244.0124199390412	2.000380039215088	107.0	1.0	0.6771979331970215	Playing_polo/v_Playing_polo_id_S-2AHPehOJk_start_12.0_label_1.mp4
252.01171207427976	2.0004470348358154	47.0	1.0	0.8858850002288818	Elliptical_trainer/v_Elliptical_trainer_id_CsEOH94PVrA_start_37.5_label_1.mp4
256.0113708972931	2.0004642009735107	161.0	1.0	0.7822370529174805	Tug_of_war/v_Tug_of_war_id_ukV7O_DYa-c_start_73.0_label_1.mp4
260.0110759735108	2.017022132873535	21.0	1.0	1.085971117019653	Camel_ride/v_Camel_ride_id_QsdFpvgC_mo_start_10.5_label_1.mp4
264.0106520652771	2.000510931015014	97.0	-1.0	0.7908849716186523	Playing_congas/v_Playing_congas_id_Sz1K_b3EFcM_start_11.0_label_1.mp4
268.0103530883789	2.0004899501800537	113.0	-1.0	0.6951780319213867	Playing_violin/v_Playing_violin_id_qZZtAh518_k_start_50.5_label_1.mp4
276.0096890926361	2.000440835952759	81.0	-1.0	0.6959540843963623	Making_an_omelette/v_Making_an_omelette_id_2jYT76kYqvU_start_54.0_label_1.mp4
280.0093901157379	2.017087936401367	2.0	-1.0	1.1835858821868896	Arm_wrestling/v_Arm_wrestling_id___4CF3UGrd0_start_76.5_label_1.mp4
284.00903701782227	2.000166893005371	58.0	-1.0	0.98500394821167	Hand_car_wash/v_Hand_car_wash_id_xDct9c93xp8_start_27.0_label_1.mp4
288.0086750984192	2.0171220302581787	130.0	1.0	0.7362399101257324	Rope_skipping/v_Rope_skipping_id_qzilmXQ0ReQ_start_11.5_label_1.mp4
292.008358001709	1.9999029636383057	53.0	-1.0	0.6578209400177002	Getting_a_piercing/v_Getting_a_piercing_id_IPllp894-qo_start_88.0_label_1.mp4
