onset	duration	trial_type	response	response_time	stim_file
12.015583038330078	2.099936962127685	79.0	-1.0	0.000525951385498	Making_a_lemonade/v_Making_a_lemonade_id_ss1VwbGxQP4_start_20.5_label_1.mp4
16.014941930770874	2.0004429817199707	91.0	1.0	0.000586986541748	Plataform_diving/v_Plataform_diving_id_2RvRHQ6bDOQ_start_79.5_label_1.mp4
20.01461601257324	2.000263929367065	135.0	-1.0	0.0005509853363037	Shaving/v_Shaving_id_WHkxH1xTBRk_start_53.0_label_1.mp4
24.01427698135376	2.0004899501800537	160.0	1.0	0.0007469654083251	Triple_jump/v_Triple_jump_id_aiIUavt13wY_start_2.5_label_1.mp4
28.01391005516052	2.033789873123169	52.0	n/a	n/a	Getting_a_haircut/v_Getting_a_haircut_id_B9lXc-UBlmk_start_50.5_label_1.mp4
36.01324892044068	2.000448942184448	131.0	1.0	0.0006818771362304	Running_a_marathon/v_Running_a_marathon_id_G6tI1WB63m8_start_40.5_label_1.mp4
40.01287889480591	2.0007481575012207	56.0	-1.0	0.0006790161132812	Grooming_horse/v_Grooming_horse_id_wXCvQ1a1onw_start_90.0_label_1.mp4
44.01259088516235	2.000723123550415	176.0	-1.0	0.0006089210510253	Waxing_skis/v_Waxing_skis_id_0x4qV27ZImw_start_77.5_label_1.mp4
48.01226592063904	2.0001540184021	136.0	1.0	0.0005741119384765	Shot_put/v_Shot_put_id_kECbxZqbjV4_start_2.5_label_1.mp4
52.01191806793213	2.000950813293457	4.0	1.0	0.0004191398620605	BMX/v_BMX_id_YKYfQEw5wBs_start_140.5_label_1.mp4
60.01122283935547	2.00058913230896	24.0	-1.0	0.0005860328674316	Carving_jack-o-lanterns/v_Carving_jack-o-lanterns_id_jfvcu2rJHTo_start_16.5_label_1.mp4
64.01086187362671	2.0006580352783203	86.0	-1.0	0.0005500316619873	Painting/v_Painting_id_Y_8I7m7GrFM_start_56.0_label_1.mp4
68.01059603691101	2.0000579357147217	149.0	1.0	0.000586986541748	Springboard_diving/v_Springboard_diving_id_eV4fPfg4Qa4_start_9.5_label_1.mp4
72.01018905639648	2.000133991241455	85.0	-1.0	0.000507116317749	Paintball/v_Paintball_id_gi-yp3J0s5Y_start_59.5_label_1.mp4
76.0098819732666	2.017137050628662	10.0	-1.0	0.0004987716674804	Beer_pong/v_Beer_pong_id_WGe3amJRLaI_start_25.0_label_1.mp4
84.00898694992065	2.000885009765625	67.0	1.0	0.0005240440368652	Hurling/v_Hurling_id_L6GqD_AL_ek_start_34.0_label_1.mp4
88.025563955307	2.033653974533081	148.0	-1.0	0.0006859302520751	Spread_mulch/v_Spread_mulch_id_f1_FZWZywbM_start_23.0_label_1.mp4
92.00858306884766	2.017055988311768	138.0	-1.0	0.0004858970642089	Shuffleboard/v_Shuffleboard_id__kRiX25yuH8_start_165.5_label_1.mp4
96.00820803642272	2.0170738697052	137.0	-1.0	0.0007948875427246	Shoveling_snow/v_Shoveling_snow_id_A2bvfrVVFLc_start_35.0_label_1.mp4
100.00789594650269	2.0171051025390625	144.0	1.0	0.0004329681396484	Snatch/v_Snatch_id_VlPHnk-4LTM_start_14.0_label_1.mp4
108.02386283874512	2.0337910652160645	33.0	-1.0	0.0058112144470214	Cutting_the_grass/v_Cutting_the_grass_id_WTyjDUYIBJY_start_86.5_label_1.mp4
112.00687885284424	2.050162076950073	78.0	-1.0	0.0004420280456542	Making_a_cake/v_Making_a_cake_id_Nndj6F28nro_start_58.0_label_1.mp4
116.02340888977052	2.0002570152282715	163.0	1.0	0.0005228519439697	Using_parallel_bars/v_Using_parallel_bars_id_gZclL45Ww-Y_start_11.0_label_1.mp4
120.00632691383362	2.0170490741729736	51.0	1.0	0.0005779266357421	Futsal/v_Futsal_id_QH-_Tf9oyJ0_start_42.5_label_1.mp4
124.02249598503111	2.0005578994750977	61.0	-1.0	0.0005099773406982	Having_an_ice_cream/v_Having_an_ice_cream_id_q99EP0pWYl4_start_107.0_label_1.mp4
132.0218529701233	2.0003368854522705	128.0	-1.0	0.0078611373901367	Rock-paper-scissors/v_Rock-paper-scissors_id_QiRJLnl8D2I_start_36.0_label_1.mp4
136.02148604393005	2.0005128383636475	36.0	1.0	0.0004708766937255	Discus_throw/v_Discus_throw_id_8w1gnmGVLxc_start_9.5_label_1.mp4
140.02116298675537	2.000493049621582	71.0	1.0	0.0004889965057373	Kayaking/v_Kayaking_id_FDngohX2IE0_start_10.5_label_1.mp4
144.02084493637085	2.0005431175231934	127.0	n/a	n/a	Rock_climbing/v_Rock_climbing_id__BxD_nxvXnE_start_22.5_label_1.mp4
148.02044987678528	2.000440120697021	31.0	1.0	0.0005409717559814	Cricket/v_Cricket_id_1xwtIu-YOvs_start_17.0_label_1.mp4
156.01986598968506	2.0003879070281982	171.0	1.0	0.0005462169647216	Wakeboarding/v_Wakeboarding_id_DpxTLlwCfH0_start_4.0_label_1.mp4
160.01944184303284	2.000526189804077	21.0	-1.0	0.0006849765777587	Camel_ride/v_Camel_ride_id_TXp_MhF4ZoI_start_49.5_label_1.mp4
164.01914501190186	2.00037693977356	1.0	1.0	0.0004620552062988	Archery/v_Archery_id_a38Kk3THt84_start_8.5_label_1.mp4
168.01879000663757	2.000480890274048	50.0	1.0	0.0005810260772705	Fun_sliding_down/v_Fun_sliding_down_id_HMmQ_El5thU_start_105.5_label_1.mp4
172.0184588432312	2.0004382133483887	59.0	-1.0	0.0004541873931884	Hand_washing_clothes/v_Hand_washing_clothes_id_ec7fNC3cQUs_start_57.0_label_1.mp4
180.01775598526	2.0004360675811768	44.0	-1.0	0.0004739761352539	Doing_step_aerobics/v_Doing_step_aerobics_id_KMlWpf1u-gY_start_11.0_label_1.mp4
184.0174629688263	2.0004889965057373	42.0	1.0	0.0006499290466308	Doing_motocross/v_Doing_motocross_id_LHhdJQ1dHDY_start_78.5_label_1.mp4
188.017107963562	2.0005440711975098	57.0	1.0	0.0005838871002197	Hammer_throw/v_Hammer_throw_id_yhuizq7XGW8_start_4.5_label_1.mp4
192.0167419910431	2.0006680488586426	140.0	1.0	0.0006341934204101	Skiing/v_Skiing_id_vCPpgCkCopQ_start_16.5_label_1.mp4
196.0164330005645	2.0006439685821533	164.0	1.0	0.0004570484161376	Using_the_balance_beam/v_Using_the_balance_beam_id_W5xXFGRDEMo_start_2.5_label_1.mp4
204.01591300964355	2.000303030014038	94.0	-1.0	0.0004799365997314	Playing_bagpipes/v_Playing_bagpipes_id_BT9hjrA_o6M_start_110.5_label_1.mp4
208.0153970718384	2.0004899501800537	27.0	1.0	0.0005719661712646	Clean_and_jerk/v_Clean_and_jerk_id_1ZfJurUwLvA_start_43.5_label_1.mp4
212.0148639678955	2.0007569789886475	90.0	n/a	n/a	Plastering/v_Plastering_id_kHRI7j-gH2o_start_125.0_label_1.mp4
216.01469492912287	2.000517129898072	121.0	-1.0	0.0005919933319091	Putting_in_contact_lenses/v_Putting_in_contact_lenses_id_yTJCrP0HqEE_start_6.5_label_1.mp4
220.01435804367063	2.000471830368042	38.0	1.0	0.0005369186401367	Doing_crunches/v_Doing_crunches_id_uxzxkoBS_7U_start_6.0_label_1.mp4
228.0136840343476	2.000610828399658	95.0	1.0	0.0005338191986083	Playing_beach_volleyball/v_Playing_beach_volleyball_id_E8q5Dccj8As_start_10.0_label_1.mp4
232.0133328437805	2.00046706199646	162.0	1.0	0.0005829334259033	Tumbling/v_Tumbling_id_uBQYmmmThqc_start_5.0_label_1.mp4
236.01298785209656	2.000465154647827	177.0	-1.0	0.0004820823669433	Welding/v_Welding_id_bFaxBz3cz9c_start_30.0_label_1.mp4
240.0127069950104	2.0005390644073486	112.0	1.0	0.0004289150238037	Playing_squash/v_Playing_squash_id_zl_d4M-zd_c_start_19.5_label_1.mp4
244.0123300552368	2.0005009174346924	14.0	-1.0	0.0006401538848876	Breakdancing/v_Breakdancing_id_yhFfs5MgMzc_start_64.5_label_1.mp4
252.01170897483823	2.00042986869812	98.0	-1.0	0.0006411075592041	Playing_drums/v_Playing_drums_id_CuPpuVsL5tY_start_49.5_label_1.mp4
256.01135897636414	2.000412940979004	16.0	-1.0	0.0006189346313476	Brushing_teeth/v_Brushing_teeth_id_l0lVHN3uJcU_start_1.5_label_1.mp4
260.01101303100586	2.000434875488281	123.0	-1.0	0.0004990100860595	Putting_on_shoes/v_Putting_on_shoes_id_Bu_sDScQpTU_start_136.0_label_1.mp4
264.0106918811798	1.9999260902404783	174.0	-1.0	0.0006029605865478	Washing_hands/v_Washing_hands_id_f9j3rHm--k8_start_113.5_label_1.mp4
268.0104260444641	1.999974012374878	60.0	-1.0	0.0006990432739257	Hanging_wallpaper/v_Hanging_wallpaper_id_NH7BPL5loEI_start_34.5_label_1.mp4
276.0096788406372	2.0000522136688232	45.0	-1.0	0.0006749629974365	Drinking_coffee/v_Drinking_coffee_id_4vCKFtJIjUs_start_2.5_label_1.mp4
280.00931096076965	2.0506160259246826	170.0	1.0	0.0004332065582275	Volleyball/v_Volleyball_id__YPWstwyjxE_start_23.5_label_1.mp4
284.0090298652649	2.000861167907715	168.0	1.0	0.0004150867462158	Using_uneven_bars/v_Using_uneven_bars_id_faq02vuLxKE_start_49.5_label_1.mp4
288.00870394706726	1.999941110610962	145.0	1.0	0.0006959438323974	Snow_tubing/v_Snow_tubing_id_XunsgW1Xh3s_start_18.5_label_1.mp4
292.0083198547363	2.000033140182495	109.0	1.0	0.0005569458007812	Playing_racquetball/v_Playing_racquetball_id_G3KyQ216h8w_start_18.0_label_1.mp4
