onset	duration	trial_type	response	response_time	stim_file
12.015236854553224	2.06729507446289	22.0	1.0	0.0006380081176757	Canoeing/v_Canoeing_id_ihUE1drnuFo_start_55.0_label_1.mp4
16.014959812164307	2.0005440711975098	119.0	-1.0	0.0004818439483642	Preparing_pasta/v_Preparing_pasta_id_HjBI9r8tocw_start_108.0_label_1.mp4
20.014593839645386	2.000440120697021	85.0	-1.0	0.0006279945373535	Paintball/v_Paintball_id_sO8p4MXI7zc_start_102.5_label_1.mp4
24.01426100730896	2.0339858531951904	1.0	1.0	0.0005190372467041	Archery/v_Archery_id_mxOI-V6btWs_start_166.0_label_1.mp4
28.01394295692444	2.0339150428771973	151.0	1.0	0.000910997390747	Sumo/v_Sumo_id_s1Bmqa7lLdE_start_157.5_label_1.mp4
36.01327085494995	2.00075912475586	74.0	-1.0	0.0005848407745361	Knitting/v_Knitting_id_H7Oz45YINZU_start_69.5_label_1.mp4
40.01287078857422	2.0007340908050537	130.0	1.0	0.000572919845581	Rope_skipping/v_Rope_skipping_id_kuqowtb1Avo_start_100.0_label_1.mp4
44.01258397102356	2.0004689693450928	109.0	1.0	0.0005431175231933	Playing_racquetball/v_Playing_racquetball_id_h8iJthOBKoI_start_53.5_label_1.mp4
48.01228594779968	2.0334949493408203	167.0	1.0	0.0005619525909423	Using_the_rowing_machine/v_Using_the_rowing_machine_id_LD8acYDakus_start_89.5_label_1.mp4
52.01194500923157	2.000401973724365	18.0	1.0	0.0008769035339355	Bullfighting/v_Bullfighting_id_7DX9aaeJHYE_start_36.5_label_1.mp4
60.0112509727478	2.0335488319396973	145.0	-1.0	0.0005619525909423	Snow_tubing/v_Snow_tubing_id_CMzrHDQVpQk_start_6.0_label_1.mp4
64.01092100143433	2.00065279006958	142.0	n/a	n/a	Smoking_a_cigarette/v_Smoking_a_cigarette_id_tZzncoy2cvg_start_30.0_label_1.mp4
68.01054191589355	2.01714301109314	131.0	1.0	0.0006020069122314	Running_a_marathon/v_Running_a_marathon_id_6D63tc_qtj0_start_16.5_label_1.mp4
72.0102047920227	2.000697135925293	31.0	-1.0	0.0007212162017822	Cricket/v_Cricket_id_1NbcHppcTDQ_start_93.0_label_1.mp4
76.00989198684692	2.0171709060668945	154.0	-1.0	0.0005609989166259	Swinging_at_the_playground/v_Swinging_at_the_playground_id_OaFmtcrD8aI_start_25.0_label_1.mp4
84.00923800468445	2.0006558895111084	39.0	1.0	0.0006308555603027	Doing_fencing/v_Doing_fencing_id_t7hbyGFsWNE_start_10.0_label_1.mp4
88.00887799263	2.017117977142334	120.0	-1.0	0.0005660057067871	Preparing_salad/v_Preparing_salad_id_dcCtYKZqBO8_start_8.0_label_1.mp4
92.0085039138794	1.999979972839356	38.0	1.0	0.0005440711975097	Doing_crunches/v_Doing_crunches_id_Yx6nISzuUoU_start_2.0_label_1.mp4
96.00821781158449	2.017144203186035	105.0	1.0	0.0004680156707763	Playing_lacrosse/v_Playing_lacrosse_id_w30RYgufh4c_start_19.0_label_1.mp4
100.00791192054749	2.016998052597046	156.0	-1.0	0.0004429817199707	Tai_chi/v_Tai_chi_id_X5PdgG2E0-o_start_103.5_label_1.mp4
108.02388286590576	2.000288963317871	50.0	-1.0	0.000554084777832	Fun_sliding_down/v_Fun_sliding_down_id_vPSBlH5I7i8_start_3.0_label_1.mp4
112.02353978157043	2.0004091262817383	62.0	1.0	0.0005409717559814	High_jump/v_High_jump_id_FxwE78f8Ygc_start_21.5_label_1.mp4
116.02317595481873	2.000663042068481	149.0	1.0	0.0005910396575927	Springboard_diving/v_Springboard_diving_id_achduFZwKJc_start_13.0_label_1.mp4
120.022873878479	2.0002880096435547	169.0	-1.0	0.0004498958587646	Vacuuming_floor/v_Vacuuming_floor_id_m6WBRAS1kug_start_128.0_label_1.mp4
124.02253198623656	2.00046181678772	178.0	-1.0	0.0005719661712646	Windsurfing/v_Windsurfing_id_XIEZPSLwqFw_start_77.0_label_1.mp4
132.0218448638916	2.00037693977356	17.0	-1.0	0.0006079673767089	Building_sandcastles/v_Building_sandcastles_id_pu52cFixeEs_start_99.5_label_1.mp4
136.02150201797485	2.0005037784576416	103.0	-1.0	0.0005309581756591	Playing_ice_hockey/v_Playing_ice_hockey_id_o12EMgROU0E_start_16.0_label_1.mp4
140.0211958885193	2.0002849102020264	63.0	-1.0	0.0004520416259765	Hitting_a_pinata/v_Hitting_a_pinata_id_ImMBbL5bGy4_start_26.0_label_1.mp4
144.02084398269653	2.0004448890686035	87.0	-1.0	0.0005419254302978	Painting_fence/v_Painting_fence_id_PgS2F7NxNBg_start_167.0_label_1.mp4
148.02048778533936	2.000547170639038	14.0	-1.0	0.0006411075592041	Breakdancing/v_Breakdancing_id_nFLgImoWcSY_start_34.0_label_1.mp4
156.01987195014954	2.000318050384521	20.0	-1.0	0.0005660057067871	Calf_roping/v_Calf_roping_id_jpNEJr-FABM_start_42.0_label_1.mp4
160.01950788497925	2.000571012496948	136.0	1.0	0.0004990100860595	Shot_put/v_Shot_put_id_6icDWq11sYc_start_8.5_label_1.mp4
164.01920890808103	2.033579111099243	143.0	-1.0	0.0006039142608642	Smoking_hookah/v_Smoking_hookah_id_gVN0MM62vcc_start_30.0_label_1.mp4
168.01880288124084	2.000507116317749	16.0	-1.0	0.0006759166717529	Brushing_teeth/v_Brushing_teeth_id_gm2N_0Db-yA_start_30.5_label_1.mp4
172.01853680610657	2.0004451274871826	10.0	-1.0	0.0005631446838378	Beer_pong/v_Beer_pong_id_YUQhzzVamWY_start_49.0_label_1.mp4
180.01782298088074	2.0005369186401367	8.0	1.0	0.0005950927734375	Baton_twirling/v_Baton_twirling_id_imrA2zrFHAE_start_16.0_label_1.mp4
184.01747298240664	2.001171827316284	61.0	-1.0	0.0005719661712646	Having_an_ice_cream/v_Having_an_ice_cream_id_lnU2wlvBgtk_start_110.5_label_1.mp4
188.01717686653137	2.0007100105285645	118.0	-1.0	0.0005698204040527	Powerbocking/v_Powerbocking_id_3JWssQsgPsY_start_104.0_label_1.mp4
192.0168290138245	2.0006117820739746	98.0	-1.0	0.0004150867462158	Playing_drums/v_Playing_drums_id_nktPRjm8MV4_start_13.0_label_1.mp4
196.01644587516785	2.0006749629974365	102.0	-1.0	0.0006699562072753	Playing_harmonica/v_Playing_harmonica_id_TWjL7IuNpsQ_start_12.5_label_1.mp4
204.0159080028534	2.000394821166992	112.0	-1.0	0.0006449222564697	Playing_squash/v_Playing_squash_id_6bKvpW5LhGY_start_82.5_label_1.mp4
208.01547288894653	2.000508069992065	44.0	1.0	0.0005178451538085	Doing_step_aerobics/v_Doing_step_aerobics_id_117w0agnCqI_start_158.0_label_1.mp4
212.01510882377625	2.000631093978882	147.0	1.0	0.0005099773406982	Spinning/v_Spinning_id_9HHUcvdH2Hw_start_45.0_label_1.mp4
216.0147349834442	2.000555992126465	43.0	-1.0	0.0006279945373535	Doing_nails/v_Doing_nails_id_qRblfXZJkWU_start_115.0_label_1.mp4
220.01447200775144	2.000717878341675	179.0	-1.0	0.0007219314575195	Wrapping_presents/v_Wrapping_presents_id_kjJVYRYM3BA_start_75.0_label_1.mp4
228.0138008594513	2.000509023666382	67.0	-1.0	0.0005791187286376	Hurling/v_Hurling_id_X_lEtJo5UoU_start_49.5_label_1.mp4
232.0134789943695	2.00011682510376	150.0	-1.0	0.0004279613494873	Starting_a_campfire/v_Starting_a_campfire_id_dCsa-tfTbdM_start_50.0_label_1.mp4
236.0131227970124	2.000420093536377	137.0	-1.0	0.000558853149414	Shoveling_snow/v_Shoveling_snow_id_jsaxz6UwXKk_start_8.5_label_1.mp4
240.0127959251404	2.0002498626708984	88.0	-1.0	0.2504820823669433	Painting_furniture/v_Painting_furniture_id_i2bppkt4Za8_start_108.5_label_1.mp4
244.0124249458313	2.000462055206299	106.0	-1.0	0.0006470680236816	Playing_piano/v_Playing_piano_id_8CgGM67QZPE_start_12.5_label_1.mp4
252.01174187660217	2.000519037246704	166.0	1.0	0.0005512237548828	Using_the_pommel_horse/v_Using_the_pommel_horse_id_D16RgjkP4iI_start_4.0_label_1.mp4
256.01135683059687	2.000976085662842	72.0	-1.0	0.0005569458007812	Kite_flying/v_Kite_flying_id_AemiHKn2-NI_start_24.0_label_1.mp4
260.0110650062561	2.0004029273986816	47.0	1.0	0.0005459785461425	Elliptical_trainer/v_Elliptical_trainer_id_5uwstsT5kdk_start_5.0_label_1.mp4
264.01068592071533	1.999989032745361	78.0	-1.0	0.0007901191711425	Making_a_cake/v_Making_a_cake_id_GrnpqB7LpBc_start_15.0_label_1.mp4
268.0103859901428	2.017293930053711	48.0	-1.0	0.0005569458007812	Fixing_bicycle/v_Fixing_bicycle_id_KMrOuN2rtd8_start_49.5_label_1.mp4
276.00982880592346	2.000429153442383	27.0	1.0	0.0006730556488037	Clean_and_jerk/v_Clean_and_jerk_id_1dtUIUnFgS8_start_41.5_label_1.mp4
280.00935792922974	2.000123977661133	37.0	1.0	0.0005290508270263	Dodgeball/v_Dodgeball_id_dukyqnKkWuY_start_15.5_label_1.mp4
284.00905299186707	1.999977827072144	46.0	-1.0	0.000540018081665	Drum_corps/v_Drum_corps_id_XJYQSP4nhVY_start_51.0_label_1.mp4
288.008663892746	2.01713490486145	19.0	1.0	0.000493049621582	Bungee_jumping/v_Bungee_jumping_id_J2Rwb5bsLhA_start_10.0_label_1.mp4
292.0082948207855	2.0504679679870605	58.0	-1.0	0.0004448890686035	Hand_car_wash/v_Hand_car_wash_id_ndm7HD7NnEA_start_66.5_label_1.mp4
