onset	duration	trial_type	response	response_time	stim_file
12.015295028686523	2.066951036453247	70.0	1.0	0.0004630088806152	Javelin_throw/v_Javelin_throw_id_Q_K1VL_-gwE_start_9.5_label_1.mp4
16.014940977096558	2.0005581378936768	135.0	-1.0	0.0008261203765869	Shaving/v_Shaving_id_Yl7wWwnqfVQ_start_46.5_label_1.mp4
20.014662981033325	2.000517129898072	103.0	1.0	0.0004889965057373	Playing_ice_hockey/v_Playing_ice_hockey_id_8GyAuuxdp3s_start_49.5_label_1.mp4
24.014284133911133	2.000288963317871	59.0	-1.0	0.0006589889526367	Hand_washing_clothes/v_Hand_washing_clothes_id_pBnyH2O2Fzw_start_22.5_label_1.mp4
28.01396107673645	2.00062894821167	37.0	1.0	0.0007119178771972	Dodgeball/v_Dodgeball_id_adiZinN4P4U_start_42.5_label_1.mp4
36.01327419281006	2.000591993331909	154.0	-1.0	0.0006449222564697	Swinging_at_the_playground/v_Swinging_at_the_playground_id_KaSOnWflRs4_start_26.5_label_1.mp4
40.01293897628784	2.0002801418304443	175.0	1.0	0.0004918575286865	Waterskiing/v_Waterskiing_id_aniB25GLeIg_start_16.5_label_1.mp4
44.01257514953613	2.033942937850952	119.0	-1.0	0.0007510185241699	Preparing_pasta/v_Preparing_pasta_id_jMDnDsCssv8_start_190.0_label_1.mp4
48.01227903366089	2.0341451168060303	165.0	1.0	0.0006449222564697	Using_the_monkey_bar/v_Using_the_monkey_bar_id_NiQB6BJe7j4_start_162.0_label_1.mp4
52.01191401481629	2.0004379749298096	53.0	-1.0	0.0005950927734375	Getting_a_piercing/v_Getting_a_piercing_id_4aYk7oQA31k_start_79.0_label_1.mp4
60.011260986328125	2.0007710456848145	27.0	1.0	0.0007069110870361	Clean_and_jerk/v_Clean_and_jerk_id_vf5dWyUgL9c_start_2.5_label_1.mp4
64.01089310646057	2.017119884490967	118.0	-1.0	0.0007200241088867	Powerbocking/v_Powerbocking_id_175esPfxgFs_start_48.0_label_1.mp4
68.01056504249573	2.000452995300293	76.0	1.0	0.0007181167602539	Long_jump/v_Long_jump_id_Qyeauw6a0yg_start_9.5_label_1.mp4
72.01024413108826	2.016974925994873	152.0	-1.0	0.000676155090332	Surfing/v_Surfing_id_71RIe3lpm8Q_start_68.5_label_1.mp4
76.00993919372559	2.017059803009033	85.0	-1.0	0.0005950927734375	Paintball/v_Paintball_id_I1ioF3ja-Uw_start_18.5_label_1.mp4
84.00919318199158	2.0006768703460693	101.0	-1.0	0.0006430149078369	Playing_guitarra/v_Playing_guitarra_id_unXO-5RgspI_start_16.0_label_1.mp4
88.00886917114258	2.017086982727051	131.0	1.0	0.000633955001831	Running_a_marathon/v_Running_a_marathon_id_MVdvxlhtNnE_start_30.0_label_1.mp4
92.00852608680724	2.017024040222168	133.0	1.0	0.0004329681396484	Scuba_diving/v_Scuba_diving_id_3XlZXpSR1i8_start_81.5_label_1.mp4
96.00816416740416	2.050391912460327	44.0	-1.0	0.0004808902740478	Doing_step_aerobics/v_Doing_step_aerobics_id_IFyuJESibe8_start_59.5_label_1.mp4
100.0244791507721	2.0338048934936523	47.0	1.0	0.0005779266357421	Elliptical_trainer/v_Elliptical_trainer_id_FTyUUsXXLrI_start_84.0_label_1.mp4
108.0071301460266	2.033632040023804	174.0	-1.0	0.0005238056182861	Washing_hands/v_Washing_hands_id_inA8l2UJ8eg_start_95.0_label_1.mp4
112.02345705032349	2.00055193901062	63.0	-1.0	0.0007350444793701	Hitting_a_pinata/v_Hitting_a_pinata_id_PPKrPoDFR94_start_48.0_label_1.mp4
116.0059711933136	2.0175437927246094	100.0	-1.0	0.0006611347198486	Playing_flauta/v_Playing_flauta_id_q368sCPjRoQ_start_73.0_label_1.mp4
120.02280807495116	2.033634901046753	164.0	-1.0	0.0006430149078369	Using_the_balance_beam/v_Using_the_balance_beam_id_0Ove_iW2X2Y_start_126.5_label_1.mp4
124.02293419837952	1.9999709129333496	40.0	1.0	0.0005009174346923	Doing_karate/v_Doing_karate_id_S6hUQi8DodA_start_5.0_label_1.mp4
132.0218060016632	2.000859022140503	30.0	-1.0	0.0005040168762207	Cleaning_windows/v_Cleaning_windows_id_9lTG0_dXaqI_start_18.5_label_1.mp4
136.02150201797485	2.0006141662597656	18.0	1.0	0.0006451606750488	Bullfighting/v_Bullfighting_id_O-8PyfZ_QBU_start_52.0_label_1.mp4
140.02112007141113	2.000525951385498	178.0	1.0	0.0006530284881591	Windsurfing/v_Windsurfing_id_jjzNHIGtAkU_start_20.0_label_1.mp4
144.02141308784485	1.9997360706329343	179.0	-1.0	0.1371889114379882	Wrapping_presents/v_Wrapping_presents_id_D7aRYvUyITg_start_68.5_label_1.mp4
148.02043509483337	2.0005788803100586	31.0	1.0	0.0005638599395751	Cricket/v_Cricket_id_IGG2sRoizGY_start_11.5_label_1.mp4
156.0197250843048	2.0003819465637207	56.0	-1.0	0.0007209777832031	Grooming_horse/v_Grooming_horse_id_js-O-na7PCE_start_121.0_label_1.mp4
160.01938199996948	2.000627994537353	146.0	1.0	0.0006508827209472	Snowboarding/v_Snowboarding_id__mfF5NcguvM_start_10.0_label_1.mp4
164.01907205581665	2.000478029251098	169.0	-1.0	0.0005848407745361	Vacuuming_floor/v_Vacuuming_floor_id_E-RqR1xjzAs_start_1.0_label_1.mp4
168.01873111724854	2.0004749298095703	14.0	-1.0	0.0005321502685546	Breakdancing/v_Breakdancing_id_guTlLnGcu7E_start_83.0_label_1.mp4
172.01840209960938	2.0337460041046143	17.0	-1.0	0.0006048679351806	Building_sandcastles/v_Building_sandcastles_id_RoHv3Ce5VeI_start_86.0_label_1.mp4
180.01775097846985	2.000624179840088	42.0	-1.0	0.0004630088806152	Doing_motocross/v_Doing_motocross_id_rxrfFfiFH-Y_start_47.0_label_1.mp4
184.01725101470947	2.0008931159973145	2.0	-1.0	0.0005488395690917	Arm_wrestling/v_Arm_wrestling_id_P3pMfAd47-Q_start_53.5_label_1.mp4
188.01707220077515	2.0008108615875244	34.0	-1.0	0.0006501674652099	Decorating_the_Christmas_tree/v_Decorating_the_Christmas_tree_id_J1fqvPaZykU_start_41.5_label_1.mp4
192.0167350769043	2.000910997390747	10.0	-1.0	0.0006389617919921	Beer_pong/v_Beer_pong_id_2P04yZBh9-Y_start_21.0_label_1.mp4
196.01642513275144	2.0005478858947754	162.0	-1.0	0.0006380081176757	Tumbling/v_Tumbling_id_NSLTyaYvHaQ_start_5.0_label_1.mp4
204.0159990787506	2.000154972076416	35.0	-1.0	0.5903780460357666	Disc_dog/v_Disc_dog_id_p-SvDBc5YSA_start_68.0_label_1.mp4
208.01539421081543	2.0004029273986816	69.0	-1.0	0.0006310939788818	Ironing_clothes/v_Ironing_clothes_id_P0b4pb-xy6A_start_39.0_label_1.mp4
212.01507115364075	2.0007529258728027	8.0	-1.0	0.0004370212554931	Baton_twirling/v_Baton_twirling_id_I-sbmrqWdg4_start_79.0_label_1.mp4
216.0149791240692	2.03348708152771	98.0	-1.0	0.0005748271942138	Playing_drums/v_Playing_drums_id_ohNIVPdyrlA_start_130.0_label_1.mp4
220.0143680572509	2.0004711151123047	65.0	-1.0	0.0004689693450927	Horseback_riding/v_Horseback_riding_id_BK_tcqeVgqw_start_87.5_label_1.mp4
228.01371312141416	2.0013420581817627	82.0	-1.0	0.0005438327789306	Mixing_drinks/v_Mixing_drinks_id_Du8Q_Ohnp3E_start_14.0_label_1.mp4
232.01338410377505	2.017072916030884	110.0	-1.0	0.0006830692291259	Playing_rubik_cube/v_Playing_rubik_cube_id_MA7ncazPqw8_start_4.5_label_1.mp4
236.0130150318145	2.0003249645233154	124.0	1.0	0.0007770061492919	Rafting/v_Rafting_id_BOGK8CWsu90_start_15.5_label_1.mp4
240.01267910003665	2.0006320476531982	11.0	-1.0	0.0007519721984863	Belly_dance/v_Belly_dance_id_JEcR8rn7WZs_start_108.0_label_1.mp4
244.01233220100403	2.0006308555603027	74.0	-1.0	0.0005700588226318	Knitting/v_Knitting_id_ClNYH56MFDA_start_6.5_label_1.mp4
252.01165509223927	2.0004448890686035	86.0	-1.0	0.0004382133483886	Painting/v_Painting_id_RdunqO5MNYI_start_93.0_label_1.mp4
256.01139211654663	2.0004029273986816	157.0	-1.0	0.0008528232574462	Tango/v_Tango_id_kC5TPrf7Gyw_start_128.0_label_1.mp4
260.0109610557556	2.000493049621582	171.0	n/a	n/a	Wakeboarding/v_Wakeboarding_id_O2HJVnqEWBs_start_78.0_label_1.mp4
264.0106720924377	2.00067400932312	141.0	-1.0	0.0006511211395263	Slacklining/v_Slacklining_id_FYlk-xPsQb0_start_54.5_label_1.mp4
268.0103440284729	2.017133951187134	136.0	1.0	0.114962100982666	Shot_put/v_Shot_put_id_gWCP0EaZ-lE_start_10.5_label_1.mp4
276.00970911979675	2.000460863113404	123.0	-1.0	0.0006101131439208	Putting_on_shoes/v_Putting_on_shoes_id_v1YflGqQ69U_start_39.5_label_1.mp4
280.00929403305054	2.017157077789306	28.0	-1.0	0.0008859634399414	Cleaning_shoes/v_Cleaning_shoes_id_Ilhfk2JOGL0_start_106.0_label_1.mp4
284.0089910030365	2.0004379749298096	75.0	-1.0	0.0006349086761474	Laying_tile/v_Laying_tile_id_I5Sb4A9gmOo_start_96.0_label_1.mp4
288.0086410045624	2.017107009887696	151.0	1.0	0.000439167022705	Sumo/v_Sumo_id_oj18HWsbEV0_start_10.5_label_1.mp4
292.0083332061768	2.016979932785034	127.0	1.0	0.0005068778991699	Rock_climbing/v_Rock_climbing_id_hnDLLpN0aac_start_150.0_label_1.mp4
