onset	duration	trial_type	response	response_time	stim_file
12.014307975769045	2.0671699047088623	13.0	-1.0	0.4197049140930176	Braiding_hair/v_Braiding_hair_id_4n-bnYxw2Vc_start_10.0_label_1.mp4
16.013999938964844	2.017065048217773	90.0	-1.0	0.390186071395874	Plastering/v_Plastering_id_5S4y7mV8UHk_start_13.0_label_1.mp4
20.013628005981445	2.0002498626708984	20.0	1.0	0.3912599086761474	Calf_roping/v_Calf_roping_id_vj077W_h4VM_start_2.0_label_1.mp4
24.013224840164185	2.000338077545166	144.0	1.0	0.3915619850158691	Snatch/v_Snatch_id_ScZ88UBcaRQ_start_13.0_label_1.mp4
28.013067960739136	2.0003159046173096	57.0	n/a	n/a	Hammer_throw/v_Hammer_throw_id_WYbKssn-s88_start_5.5_label_1.mp4
36.01213979721069	2.000465154647827	149.0	1.0	0.4407558441162109	Springboard_diving/v_Springboard_diving_id_MsVzSXSssco_start_47.0_label_1.mp4
40.011844873428345	2.00034499168396	146.0	1.0	0.3769011497497558	Snowboarding/v_Snowboarding_id_4ZqNvL7ikUI_start_63.0_label_1.mp4
44.01153302192688	1.999835968017578	4.0	1.0	0.3697330951690674	BMX/v_BMX_id_Pd_qkvdiwWQ_start_68.5_label_1.mp4
48.01123595237732	2.00068998336792	177.0	-1.0	0.3212130069732666	Welding/v_Welding_id_Q2sBUVZtw_c_start_103.5_label_1.mp4
52.0110809803009	2.0168440341949463	27.0	1.0	0.545245885848999	Clean_and_jerk/v_Clean_and_jerk_id_DU2hdNIS2WI_start_17.0_label_1.mp4
60.01015686988831	2.0003490447998047	156.0	1.0	0.3786079883575439	Tai_chi/v_Tai_chi_id_2qD9Ux0ThTw_start_9.5_label_1.mp4
64.01019883155823	2.0166220664978027	56.0	-1.0	0.4823050498962402	Grooming_horse/v_Grooming_horse_id_OB1YX6Mdn_o_start_79.0_label_1.mp4
68.00945782661438	2.017106056213379	109.0	1.0	0.4186239242553711	Playing_racquetball/v_Playing_racquetball_id_vrhuCLIx6Fc_start_14.0_label_1.mp4
72.00910592079163	2.0170860290527344	49.0	-1.0	0.4030120372772217	Fixing_the_roof/v_Fixing_the_roof_id_yyOf1VQ3ybQ_start_34.5_label_1.mp4
76.00876879692078	2.0001912117004395	167.0	1.0	0.3964130878448486	Using_the_rowing_machine/v_Using_the_rowing_machine_id_wyQSfj39xx8_start_10.0_label_1.mp4
84.0082528591156	2.0002329349517822	18.0	1.0	0.3966741561889648	Bullfighting/v_Bullfighting_id_IIrcQBclO2E_start_11.5_label_1.mp4
88.00769996643066	2.016983985900879	145.0	1.0	0.4363150596618652	Snow_tubing/v_Snow_tubing_id_QUMNvMBA0ik_start_74.0_label_1.mp4
92.0069899559021	2.017328977584839	88.0	-1.0	0.4206960201263428	Painting_furniture/v_Painting_furniture_id_Kf7hBi70yT4_start_69.5_label_1.mp4
96.0067138671875	2.017354965209961	37.0	1.0	0.3730709552764892	Dodgeball/v_Dodgeball_id_l48uluzHVP4_start_25.5_label_1.mp4
100.00678896903992	2.0170600414276123	22.0	1.0	0.3973639011383056	Canoeing/v_Canoeing_id_glUKGWFJKJA_start_110.0_label_1.mp4
108.02266383171082	1.983537197113037	41.0	1.0	0.4071950912475586	Doing_kickboxing/v_Doing_kickboxing_id_OhlbJrbFFow_start_97.0_label_1.mp4
112.02230787277222	2.033890008926392	77.0	1.0	0.5010731220245361	Longboarding/v_Longboarding_id_Kpn9hZZ9Abk_start_27.5_label_1.mp4
116.0219669342041	2.000434875488281	103.0	1.0	0.0005819797515869	Playing_ice_hockey/v_Playing_ice_hockey_id_bUqcdlpJey4_start_71.5_label_1.mp4
120.0216109752655	2.0000228881835938	61.0	-1.0	0.7834270000457764	Having_an_ice_cream/v_Having_an_ice_cream_id_DbHDT7JIp2U_start_83.0_label_1.mp4
124.02129292488098	2.000386953353882	134.0	-1.0	0.463479995727539	Sharpening_knives/v_Sharpening_knives_id_5vDhmzpQAkw_start_186.5_label_1.mp4
132.02066493034363	2.0002429485321045	82.0	-1.0	0.5442118644714355	Mixing_drinks/v_Mixing_drinks_id_GXJV3iJDD-0_start_110.5_label_1.mp4
136.01999187469482	2.000620126724243	51.0	1.0	0.4485340118408203	Futsal/v_Futsal_id_pFu2KAgZU9o_start_1.0_label_1.mp4
140.0198938846588	2.000432014465332	164.0	1.0	0.4327969551086426	Using_the_balance_beam/v_Using_the_balance_beam_id_b9PvqpRdV_E_start_49.0_label_1.mp4
144.0195779800415	2.0003678798675537	38.0	1.0	0.4332618713378906	Doing_crunches/v_Doing_crunches_id_DussXPPlEko_start_6.0_label_1.mp4
148.01921796798706	2.034034013748169	115.0	1.0	0.4161510467529297	Pole_vault/v_Pole_vault_id_e991eNklets_start_24.5_label_1.mp4
156.01852083206177	2.0004889965057373	70.0	1.0	0.4262070655822754	Javelin_throw/v_Javelin_throw_id_Y6DxzaH8bbI_start_3.0_label_1.mp4
160.01820182800293	2.000486135482788	95.0	1.0	0.3464579582214355	Playing_beach_volleyball/v_Playing_beach_volleyball_id_MH4oZw3Uoa8_start_35.0_label_1.mp4
164.01821494102478	2.0001120567321777	122.0	-1.0	0.3948900699615478	Putting_on_makeup/v_Putting_on_makeup_id__pMk8xSjW6U_start_83.0_label_1.mp4
168.01748895645142	2.000403881072998	129.0	1.0	0.3871679306030273	Rollerblading/v_Rollerblading_id_eDgLDUvfxxc_start_21.5_label_1.mp4
172.01716899871826	2.0004498958587646	80.0	-1.0	0.4276440143585205	Making_a_sandwich/v_Making_a_sandwich_id_2eFw-B-Fq5g_start_145.5_label_1.mp4
180.01662397384644	2.00025486946106	140.0	1.0	0.2762279510498047	Skiing/v_Skiing_id_p6dOWvwP3Ow_start_12.0_label_1.mp4
184.0161638259888	2.00052809715271	10.0	-1.0	0.6525049209594727	Beer_pong/v_Beer_pong_id_q7-XQPO1ScU_start_2.0_label_1.mp4
188.0158019065857	2.0003130435943604	96.0	-1.0	0.4688770771026611	Playing_blackjack/v_Playing_blackjack_id_2zFP0kiLUxc_start_7.5_label_1.mp4
192.0154178142548	2.000326156616211	174.0	-1.0	0.4453248977661133	Washing_hands/v_Washing_hands_id_u42qX_Es6r4_start_3.5_label_1.mp4
196.01516795158383	2.00049090385437	83.0	-1.0	0.4216220378875732	Mooping_floor/v_Mooping_floor_id_9TH4AsesgCE_start_2.0_label_1.mp4
204.0144848823548	2.0005719661712646	33.0	-1.0	0.4942431449890136	Cutting_the_grass/v_Cutting_the_grass_id_0hN_tu3AaMQ_start_4.5_label_1.mp4
208.014132976532	2.0002429485321045	98.0	-1.0	0.6466610431671143	Playing_drums/v_Playing_drums_id_PdKVJ-O8OFU_start_0.5_label_1.mp4
212.01369500160217	2.000492811203003	8.0	1.0	0.4790248870849609	Baton_twirling/v_Baton_twirling_id_PrI65yWKBSM_start_12.0_label_1.mp4
216.0134418010712	2.000362157821656	147.0	1.0	0.4393990039825439	Spinning/v_Spinning_id_T_oeQ_UrdKo_start_3.0_label_1.mp4
220.01306080818176	2.033831119537353	165.0	1.0	0.5102910995483398	Using_the_monkey_bar/v_Using_the_monkey_bar_id_mcRuSfOje_Q_start_18.5_label_1.mp4
228.01242685318	2.000465154647827	173.0	-1.0	0.4882729053497314	Washing_dishes/v_Washing_dishes_id_DMe9Bdd15Rg_start_6.5_label_1.mp4
232.0120849609375	2.0002479553222656	128.0	-1.0	0.560697078704834	Rock-paper-scissors/v_Rock-paper-scissors_id_cv65PHnV4ho_start_50.5_label_1.mp4
236.01181387901303	2.000319004058838	166.0	1.0	0.513024091720581	Using_the_pommel_horse/v_Using_the_pommel_horse_id_BXV0LAPn1ZI_start_16.5_label_1.mp4
240.0113718509674	2.000408172607422	72.0	-1.0	0.7534689903259277	Kite_flying/v_Kite_flying_id_ChghwF3-ScY_start_14.0_label_1.mp4
244.01098799705505	2.0336759090423584	176.0	-1.0	0.4885151386260986	Waxing_skis/v_Waxing_skis_id_w1_0tWbRFFs_start_85.5_label_1.mp4
252.010304927826	2.0004329681396484	100.0	-1.0	0.3704481124877929	Playing_flauta/v_Playing_flauta_id_mcVVNwrzQLw_start_39.0_label_1.mp4
256.00997495651245	2.000418901443481	119.0	-1.0	0.5387048721313477	Preparing_pasta/v_Preparing_pasta_id_uQdsxeHKaOk_start_110.0_label_1.mp4
260.0095899105072	2.000241041183472	9.0	1.0	0.4914660453796386	Beach_soccer/v_Beach_soccer_id_mnMazan58o4_start_63.0_label_1.mp4
264.00920391082764	2.017232894897461	170.0	1.0	0.2747268676757812	Volleyball/v_Volleyball_id_1Y7OOhgrOzE_start_73.0_label_1.mp4
268.0090148448944	2.017048120498657	48.0	-1.0	0.515078067779541	Fixing_bicycle/v_Fixing_bicycle_id_LlCyKLwXnpk_start_13.0_label_1.mp4
276.0083038806915	2.000240087509156	46.0	-1.0	0.5484840869903564	Drum_corps/v_Drum_corps_id_wVwz57OItBM_start_68.0_label_1.mp4
280.0079069137573	2.01709508895874	123.0	-1.0	0.5641348361968994	Putting_on_shoes/v_Putting_on_shoes_id_t1VayGJyI50_start_7.0_label_1.mp4
284.0075478553772	2.0170669555664062	87.0	-1.0	0.5484280586242676	Painting_fence/v_Painting_fence_id_SDn58kKT_9o_start_26.5_label_1.mp4
288.00723481178284	2.017110109329224	40.0	-1.0	0.6528499126434326	Doing_karate/v_Doing_karate_id_IR8wH4k1zGc_start_109.0_label_1.mp4
292.00777888298035	2.01609206199646	135.0	-1.0	0.95707106590271	Shaving/v_Shaving_id_jDnTWpI5Hdg_start_105.0_label_1.mp4
