onset	duration	trial_type	response	response_time	stim_file
12.01531195640564	2.100414991378784	157.0	1.0	0.6006500720977783	Tango/v_Tango_id_a9YBzEcD7yI_start_58.0_label_1.mp4
16.01495099067688	2.0006070137023926	4.0	1.0	0.5568721294403076	BMX/v_BMX_id_VYeWn1ftemE_start_84.5_label_1.mp4
20.01461100578308	2.0004959106445312	77.0	1.0	0.4533240795135498	Longboarding/v_Longboarding_id_HcnTuJ7RK7I_start_12.0_label_1.mp4
24.01426601409912	2.0005390644073486	65.0	1.0	1.1096439361572266	Horseback_riding/v_Horseback_riding_id_XbROPLPT9Ec_start_32.0_label_1.mp4
28.01395392417908	2.0004870891571045	105.0	1.0	0.5820341110229492	Playing_lacrosse/v_Playing_lacrosse_id_ovbut1pKuP4_start_57.0_label_1.mp4
36.013267993927	2.0003468990325928	137.0	-1.0	0.5266621112823486	Shoveling_snow/v_Shoveling_snow_id_D4x9d9PDo9E_start_27.0_label_1.mp4
40.01288986206055	2.000517129898072	54.0	n/a	n/a	Getting_a_tattoo/v_Getting_a_tattoo_id_AadONYLODFg_start_55.5_label_1.mp4
44.01256608963013	2.000502824783325	102.0	-1.0	0.83132004737854	Playing_harmonica/v_Playing_harmonica_id_gX3fHw94Vsw_start_117.0_label_1.mp4
48.012284994125366	2.000499963760376	165.0	1.0	0.6557888984680176	Using_the_monkey_bar/v_Using_the_monkey_bar_id_5ZiXxeQD9sE_start_110.5_label_1.mp4
52.01185393333435	2.034018993377685	35.0	n/a	n/a	Disc_dog/v_Disc_dog_id_dp2-2ap1Me0_start_95.5_label_1.mp4
60.0111780166626	2.0005040168762207	120.0	-1.0	0.4167220592498779	Preparing_salad/v_Preparing_salad_id_i_n-hsN8sjg_start_173.0_label_1.mp4
64.01083493232727	2.0006160736083984	64.0	1.0	1.6810739040374756	Hopscotch/v_Hopscotch_id_L2eogGmoR4o_start_13.5_label_1.mp4
68.01051592826843	2.000440120697021	121.0	-1.0	0.7055940628051758	Putting_in_contact_lenses/v_Putting_in_contact_lenses_id_69PL49xte48_start_59.0_label_1.mp4
72.01016998291016	2.0172219276428223	82.0	-1.0	0.5450499057769775	Mixing_drinks/v_Mixing_drinks_id_npYiqJuqywA_start_103.0_label_1.mp4
76.00983905792236	2.0000200271606445	68.0	-1.0	0.7785940170288086	Ice_fishing/v_Ice_fishing_id_I9y1-6pAufw_start_14.5_label_1.mp4
84.00918006896973	2.000650882720948	63.0	-1.0	0.5867409706115723	Hitting_a_pinata/v_Hitting_a_pinata_id_YQ8tAqJPLHo_start_3.0_label_1.mp4
88.00882196426392	2.0171709060668945	58.0	-1.0	0.6424989700317383	Hand_car_wash/v_Hand_car_wash_id_cavN0P4gZx4_start_197.0_label_1.mp4
92.00848603248596	2.0171258449554443	154.0	1.0	0.6508870124816895	Swinging_at_the_playground/v_Swinging_at_the_playground_id_GDHksvxQjTo_start_101.5_label_1.mp4
96.0082049369812	2.016807079315185	170.0	1.0	0.5314731597900391	Volleyball/v_Volleyball_id_Gteah8mQRIM_start_46.0_label_1.mp4
100.0073299407959	2.0175700187683105	100.0	-1.0	0.8515281677246094	Playing_flauta/v_Playing_flauta_id_6VcCvgKSfkM_start_9.0_label_1.mp4
108.00690293312071	2.000684976577759	167.0	1.0	0.9088928699493408	Using_the_rowing_machine/v_Using_the_rowing_machine_id_GK2cWOOjfu0_start_14.5_label_1.mp4
112.00707697868349	2.016495943069458	134.0	1.0	0.9328458309173584	Sharpening_knives/v_Sharpening_knives_id_SpwOzrXw9JU_start_105.0_label_1.mp4
116.02313208580016	2.0001659393310547	144.0	1.0	0.7732229232788086	Snatch/v_Snatch_id_wJljD3WM3Ec_start_10.0_label_1.mp4
120.02279496192932	2.0004329681396484	124.0	1.0	0.5573420524597168	Rafting/v_Rafting_id_up3H77P8e6g_start_10.0_label_1.mp4
124.02249693870544	2.0004191398620605	133.0	1.0	0.733565092086792	Scuba_diving/v_Scuba_diving_id_TPxmlLfvkas_start_7.0_label_1.mp4
132.02178287506104	2.0002830028533936	101.0	-1.0	0.4543972015380859	Playing_guitarra/v_Playing_guitarra_id_179nIg-5gnw_start_113.5_label_1.mp4
136.02146697044373	2.000646114349365	168.0	1.0	1.5265300273895264	Using_uneven_bars/v_Using_uneven_bars_id_oCN7g0zgLHM_start_7.5_label_1.mp4
140.02142786979675	2.000172138214112	90.0	-1.0	0.5668959617614746	Plastering/v_Plastering_id_9syYJfG9OWI_start_163.5_label_1.mp4
144.02081394195557	2.000525951385498	156.0	1.0	1.0793099403381348	Tai_chi/v_Tai_chi_id_vfg2qpRSBYo_start_160.0_label_1.mp4
148.02049088478088	2.000434160232544	130.0	1.0	0.3437080383300781	Rope_skipping/v_Rope_skipping_id_IIkoctA-4ac_start_13.0_label_1.mp4
156.01976799964905	2.0005669593811035	104.0	1.0	0.0005807876586914	Playing_kickball/v_Playing_kickball_id_a-r6VjBD0y0_start_174.5_label_1.mp4
160.01945805549622	2.000509023666382	40.0	n/a	n/a	Doing_karate/v_Doing_karate_id_v2sk1lyidr0_start_128.5_label_1.mp4
164.01907086372375	2.0006120204925537	92.0	-1.0	0.7129051685333252	Playing_accordion/v_Playing_accordion_id_svS_R4vWfPU_start_10.0_label_1.mp4
168.01878190040588	2.0004210472106934	67.0	1.0	0.5933029651641846	Hurling/v_Hurling_id_p58AxoI7rwQ_start_113.0_label_1.mp4
172.01844692230225	2.0003890991210938	86.0	-1.0	0.7616839408874512	Painting/v_Painting_id_M-eRtVVMczc_start_82.5_label_1.mp4
180.01770091056824	2.0004560947418213	153.0	1.0	0.4344549179077148	Swimming/v_Swimming_id_rzW39eGL2js_start_4.5_label_1.mp4
184.017431974411	2.000570058822632	43.0	-1.0	0.7386050224304199	Doing_nails/v_Doing_nails_id_372dz4cOpJM_start_26.0_label_1.mp4
188.01703691482544	2.000452041625977	12.0	-1.0	0.7950530052185059	Blow-drying_hair/v_Blow-drying_hair_id_hx7G4Se80Jw_start_1.5_label_1.mp4
192.0167269706726	2.000368118286133	89.0	1.0	0.8834829330444336	Ping-pong/v_Ping-pong_id_xR57jwV5gnE_start_74.0_label_1.mp4
196.01637601852417	2.033756971359253	45.0	-1.0	0.6263949871063232	Drinking_coffee/v_Drinking_coffee_id_2IfW2leGdzQ_start_151.5_label_1.mp4
204.01569986343384	2.03378701210022	107.0	1.0	0.8750929832458496	Playing_polo/v_Playing_polo_id_PYGQnPmzFx8_start_87.5_label_1.mp4
208.01538705825809	2.0339009761810303	119.0	-1.0	0.6834321022033691	Preparing_pasta/v_Preparing_pasta_id_TqgJTnQboP4_start_52.0_label_1.mp4
212.01502203941345	2.000653982162476	169.0	n/a	n/a	Vacuuming_floor/v_Vacuuming_floor_id_Mu1jLfPTytw_start_29.5_label_1.mp4
216.0147058963776	2.000586986541748	31.0	1.0	0.6614081859588623	Cricket/v_Cricket_id_gjTPZ3tn95Y_start_38.5_label_1.mp4
220.01437401771545	2.000581979751587	166.0	1.0	0.6217010021209717	Using_the_pommel_horse/v_Using_the_pommel_horse_id__im1iEVxPsw_start_28.5_label_1.mp4
228.0136840343476	2.0004138946533203	80.0	-1.0	0.5825941562652588	Making_a_sandwich/v_Making_a_sandwich_id_r8ys12GyDEo_start_24.0_label_1.mp4
232.01334500312805	2.000459909439087	176.0	n/a	n/a	Waxing_skis/v_Waxing_skis_id_nnEMwt48bKA_start_41.5_label_1.mp4
236.01298999786377	2.0005970001220703	118.0	-1.0	0.5270671844482422	Powerbocking/v_Powerbocking_id_BWFtUx_xQdo_start_26.0_label_1.mp4
240.01265788078308	2.0007331371307373	174.0	n/a	n/a	Washing_hands/v_Washing_hands_id_wzjZWyXpYG4_start_7.5_label_1.mp4
244.01232504844663	2.0006468296051025	149.0	1.0	0.7838089466094971	Springboard_diving/v_Springboard_diving_id_PPoKKZxwKzE_start_4.5_label_1.mp4
252.0116548538208	2.0340402126312256	19.0	1.0	0.8470931053161621	Bungee_jumping/v_Bungee_jumping_id_7naY_WeqWUM_start_197.5_label_1.mp4
256.01132106781006	2.0171709060668945	60.0	-1.0	0.51214599609375	Hanging_wallpaper/v_Hanging_wallpaper_id_0GjwIC2QvMk_start_33.0_label_1.mp4
260.01097989082336	2.000732183456421	143.0	-1.0	1.2651269435882568	Smoking_hookah/v_Smoking_hookah_id_6wzmLC4HLxY_start_91.0_label_1.mp4
264.0106289386749	2.0175909996032715	56.0	-1.0	0.6163499355316162	Grooming_horse/v_Grooming_horse_id_ki_RCJqyYu0_start_78.0_label_1.mp4
268.01034688949585	2.0331790447235107	122.0	-1.0	1.1290159225463867	Putting_on_makeup/v_Putting_on_makeup_id_kgXiNizPp8A_start_26.5_label_1.mp4
276.00963306427	2.0005459785461426	51.0	1.0	0.5545909404754639	Futsal/v_Futsal_id_tlVlWpFHyRE_start_50.5_label_1.mp4
280.0092430114746	2.0504720211029053	79.0	-1.0	0.7289779186248779	Making_a_lemonade/v_Making_a_lemonade_id_7AiP2dJTpho_start_21.5_label_1.mp4
284.00894808769226	2.0169267654418945	123.0	-1.0	0.666618824005127	Putting_on_shoes/v_Putting_on_shoes_id_AjPvnLyxfX4_start_11.0_label_1.mp4
288.00857305526733	2.01714301109314	17.0	-1.0	0.4828710556030273	Building_sandcastles/v_Building_sandcastles_id_jqYUP_AXzmQ_start_12.0_label_1.mp4
292.00830698013306	2.0171329975128174	22.0	-1.0	1.019147872924805	Canoeing/v_Canoeing_id_9-4ZfsTGItE_start_30.5_label_1.mp4
