onset	duration	trial_type	response	response_time	stim_file
12.015498876571655	2.1006081104278564	38.0	1.0	0.3962330818176269	Doing_crunches/v_Doing_crunches_id_5W7BzZwjkDE_start_31.5_label_1.mp4
16.015125036239624	2.000243902206421	62.0	1.0	0.5449848175048828	High_jump/v_High_jump_id_0D-ZHo7Pywc_start_10.5_label_1.mp4
20.014816999435425	2.0008580684661865	143.0	-1.0	0.6093130111694336	Smoking_hookah/v_Smoking_hookah_id_kOXgt5Zt9H4_start_11.5_label_1.mp4
24.014487981796265	2.0003750324249268	81.0	n/a	n/a	Making_an_omelette/v_Making_an_omelette_id_F3bztDC-pw4_start_29.0_label_1.mp4
28.01408791542053	2.000509023666382	105.0	1.0	0.9696369171142578	Playing_lacrosse/v_Playing_lacrosse_id_bfo6Ynn65YM_start_10.0_label_1.mp4
36.0133068561554	2.00063419342041	131.0	1.0	0.0006561279296875	Running_a_marathon/v_Running_a_marathon_id_1Mt31BAEwto_start_6.0_label_1.mp4
40.01310706138611	2.000719785690308	125.0	n/a	n/a	Raking_leaves/v_Raking_leaves_id_C7KHtk4ubCE_start_46.5_label_1.mp4
44.01278901100159	2.0006120204925537	159.0	1.0	0.7708590030670166	Trimming_branches_or_hedges/v_Trimming_branches_or_hedges_id_pO60ZObG3YU_start_80.0_label_1.mp4
48.0124499797821	1.9999229907989504	144.0	1.0	0.4996449947357178	Snatch/v_Snatch_id_Nmh0bCzuicQ_start_3.5_label_1.mp4
52.01216006278992	2.0003628730773926	24.0	-1.0	0.6117119789123535	Carving_jack-o-lanterns/v_Carving_jack-o-lanterns_id_tiLp9zgACkU_start_41.0_label_1.mp4
60.01143598556519	2.000504970550537	112.0	1.0	1.0362911224365234	Playing_squash/v_Playing_squash_id_TblnYm1ctew_start_27.5_label_1.mp4
64.01105403900146	2.000427961349488	150.0	-1.0	0.7087030410766602	Starting_a_campfire/v_Starting_a_campfire_id_NoKGhcRcNPo_start_31.0_label_1.mp4
68.01071000099182	2.000606060028076	32.0	-1.0	1.221299171447754	Croquet/v_Croquet_id_cS2U-KXNe94_start_6.5_label_1.mp4
72.01042294502258	2.000433921813965	149.0	1.0	0.573667049407959	Springboard_diving/v_Springboard_diving_id_tlLT9YNpCDw_start_41.0_label_1.mp4
76.01000785827637	2.000075101852417	167.0	1.0	0.582136869430542	Using_the_rowing_machine/v_Using_the_rowing_machine_id_szL51IHSqRY_start_62.0_label_1.mp4
84.00937104225159	2.000443935394287	124.0	1.0	0.1903882026672363	Rafting/v_Rafting_id_HIkGnBX0Tqg_start_67.5_label_1.mp4
88.00904083251953	2.0001330375671387	53.0	-1.0	0.6231200695037842	Getting_a_piercing/v_Getting_a_piercing_id_ht1YjWEyvdA_start_62.5_label_1.mp4
92.0086579322815	2.0170440673828125	163.0	1.0	0.5584049224853516	Using_parallel_bars/v_Using_parallel_bars_id_yRr7N8OgrjI_start_10.0_label_1.mp4
96.0250279903412	2.0002758502960205	33.0	-1.0	1.1108310222625732	Cutting_the_grass/v_Cutting_the_grass_id_IQdLJpMfJtA_start_6.5_label_1.mp4
100.00801706314088	2.0170609951019287	4.0	-1.0	0.6950690746307373	BMX/v_BMX_id_4mzYmiz-8oI_start_5.5_label_1.mp4
108.0072090625763	2.0009469985961914	44.0	-1.0	1.5763530731201172	Doing_step_aerobics/v_Doing_step_aerobics_id_APfQNN8jUVM_start_52.0_label_1.mp4
112.00696897506714	2.017112970352173	7.0	1.0	0.0004680156707763	Bathing_dog/v_Bathing_dog_id_g2OAuBZdYmA_start_66.5_label_1.mp4
116.02329993247986	2.000447988510132	128.0	-1.0	0.6884269714355469	Rock-paper-scissors/v_Rock-paper-scissors_id_EMi7AUKQ4Zg_start_71.0_label_1.mp4
120.00581192970276	2.017799139022827	48.0	1.0	1.0165748596191406	Fixing_bicycle/v_Fixing_bicycle_id_KVCOjZ4wCgA_start_45.5_label_1.mp4
124.0226230621338	2.0004169940948486	22.0	1.0	0.3691861629486084	Canoeing/v_Canoeing_id_utX1SdGWFss_start_12.5_label_1.mp4
132.02194094657898	1.984083890914917	113.0	-1.0	0.5784280300140381	Playing_violin/v_Playing_violin_id_XVpPVinXcCw_start_2.5_label_1.mp4
136.02133893966675	2.000775098800659	178.0	-1.0	0.5062329769134521	Windsurfing/v_Windsurfing_id_utHAuQNRkUM_start_34.5_label_1.mp4
140.02128505706787	2.0004899501800537	42.0	1.0	1.0104820728302002	Doing_motocross/v_Doing_motocross_id_xdajGdG5tio_start_17.0_label_1.mp4
144.02095293998718	2.0336709022521973	177.0	-1.0	0.7695808410644531	Welding/v_Welding_id_evSAEI4qBuA_start_32.0_label_1.mp4
148.02071285247803	2.000239133834839	52.0	1.0	0.7233169078826904	Getting_a_haircut/v_Getting_a_haircut_id_-67V07adhh8_start_6.0_label_1.mp4
156.01995706558228	2.000428915023804	11.0	1.0	0.0006310939788818	Belly_dance/v_Belly_dance_id_Z_vYOeozRAw_start_10.5_label_1.mp4
160.01965188980105	2.000352144241333	78.0	-1.0	1.0523359775543213	Making_a_cake/v_Making_a_cake_id_3qOjCdtwSAY_start_28.0_label_1.mp4
164.01900100708008	2.000694990158081	12.0	-1.0	0.7726218700408936	Blow-drying_hair/v_Blow-drying_hair_id_D7Tvqo3EeVU_start_91.0_label_1.mp4
168.01893496513367	2.000217914581299	179.0	-1.0	0.6611039638519287	Wrapping_presents/v_Wrapping_presents_id_EwIk0gKdOPE_start_77.5_label_1.mp4
172.0186049938202	2.0007400512695312	146.0	1.0	0.7491288185119629	Snowboarding/v_Snowboarding_id_zILNY6nz9Fo_start_49.5_label_1.mp4
180.01791501045227	2.000464916229248	49.0	-1.0	0.4459559917449951	Fixing_the_roof/v_Fixing_the_roof_id_56hxS2hrqs4_start_29.5_label_1.mp4
184.0175449848175	2.0006089210510254	63.0	-1.0	0.7981600761413574	Hitting_a_pinata/v_Hitting_a_pinata_id_8WcRu39GHpQ_start_34.5_label_1.mp4
188.01725602149963	2.0005879402160645	171.0	n/a	n/a	Wakeboarding/v_Wakeboarding_id_0fvsclBd13E_start_0.5_label_1.mp4
192.01739406585693	1.999744892120361	147.0	1.0	0.3671679496765136	Spinning/v_Spinning_id_1M-j0XeHuTk_start_5.5_label_1.mp4
196.0165638923645	2.033605098724365	97.0	-1.0	0.5020351409912109	Playing_congas/v_Playing_congas_id_h0XRnVSHWtw_start_27.0_label_1.mp4
204.0159108638764	2.000533103942871	51.0	1.0	0.7839338779449463	Futsal/v_Futsal_id_SiE5NWAQbg4_start_59.0_label_1.mp4
208.01569485664368	2.000490188598633	13.0	-1.0	0.9922480583190918	Braiding_hair/v_Braiding_hair_id_0uH9VZmnusw_start_161.0_label_1.mp4
212.0152208805084	2.000542163848877	66.0	1.0	0.5526399612426758	Hula_hoop/v_Hula_hoop_id_dCXHu_WS4iY_start_211.0_label_1.mp4
216.01488304138184	2.000319004058838	129.0	n/a	n/a	Rollerblading/v_Rollerblading_id_0TM53oN2a0Y_start_9.0_label_1.mp4
220.01455283164967	2.000730037689209	54.0	-1.0	0.2812089920043945	Getting_a_tattoo/v_Getting_a_tattoo_id_OE6aaexBGpQ_start_2.0_label_1.mp4
228.01387405395508	2.0005578994750977	137.0	1.0	0.953995943069458	Shoveling_snow/v_Shoveling_snow_id_D-bsMzWmA6Q_start_62.5_label_1.mp4
232.01350903511047	2.001295804977417	99.0	1.0	0.7861831188201904	Playing_field_hockey/v_Playing_field_hockey_id_PtK23eV6UGQ_start_3.5_label_1.mp4
236.01320886611936	2.0003340244293213	93.0	1.0	0.5787239074707031	Playing_badminton/v_Playing_badminton_id_eRj4kVq7Qjg_start_71.0_label_1.mp4
240.0128538608551	2.0005130767822266	122.0	-1.0	1.1311240196228027	Putting_on_makeup/v_Putting_on_makeup_id_EsI7ehhL_Os_start_12.5_label_1.mp4
244.01251792907715	2.033980131149292	40.0	1.0	0.9458630084991456	Doing_karate/v_Doing_karate_id_AVhQWqgCUtI_start_159.0_label_1.mp4
252.0118148326873	2.000594139099121	107.0	1.0	0.4681060314178467	Playing_polo/v_Playing_polo_id_clJ5YzMi8IA_start_44.5_label_1.mp4
256.0115208625793	2.00063419342041	36.0	1.0	0.5963060855865479	Discus_throw/v_Discus_throw_id_jmaximHAWv4_start_2.0_label_1.mp4
260.01116585731506	2.000049114227295	25.0	1.0	0.9175069332122804	Cheerleading/v_Cheerleading_id_3f9foJJ8mDE_start_70.5_label_1.mp4
264.0105550289154	2.03400993347168	34.0	-1.0	0.4677557945251465	Decorating_the_Christmas_tree/v_Decorating_the_Christmas_tree_id_FrB1nrGW_nE_start_31.0_label_1.mp4
268.0104939937592	2.0169789791107178	18.0	1.0	0.7088408470153809	Bullfighting/v_Bullfighting_id_szIiDuU5UMw_start_47.0_label_1.mp4
276.0098390579224	2.033862829208374	88.0	n/a	n/a	Painting_furniture/v_Painting_furniture_id_b9M0ZglBJFE_start_56.5_label_1.mp4
280.0095000267029	2.05039381980896	176.0	-1.0	0.8205571174621582	Waxing_skis/v_Waxing_skis_id_nYXmSFHruQo_start_29.0_label_1.mp4
284.00914001464844	2.0504279136657715	151.0	1.0	0.6688599586486816	Sumo/v_Sumo_id__f2DS22s4qw_start_30.5_label_1.mp4
288.008761882782	2.000051021575928	118.0	n/a	n/a	Powerbocking/v_Powerbocking_id_9TBavIeoxSQ_start_39.5_label_1.mp4
292.0084550380707	2.017007827758789	91.0	1.0	0.2147572040557861	Plataform_diving/v_Plataform_diving_id_RFpFZEVZvUg_start_1.0_label_1.mp4
