onset	duration	trial_type	response	response_time	stim_file
12.015125036239624	2.067183017730713	141.0	n/a	n/a	Slacklining/v_Slacklining_id_HcYyRExv-98_start_73.5_label_1.mp4
16.014783143997192	2.000450849533081	59.0	-1.0	0.7497920989990234	Hand_washing_clothes/v_Hand_washing_clothes_id__3Y43EabWMo_start_49.0_label_1.mp4
20.01447415351868	2.000800848007202	142.0	-1.0	0.549983024597168	Smoking_a_cigarette/v_Smoking_a_cigarette_id_p1LSpmsthTw_start_53.0_label_1.mp4
24.014090061187744	2.0005691051483154	121.0	-1.0	0.4943339824676513	Putting_in_contact_lenses/v_Putting_in_contact_lenses_id_VJ-iKzKVigE_start_56.0_label_1.mp4
28.01381707191468	2.000741004943848	145.0	1.0	0.6626179218292236	Snow_tubing/v_Snow_tubing_id_hPEycJ1VGgI_start_0.5_label_1.mp4
36.01309299468994	2.0008060932159424	14.0	1.0	0.5593500137329102	Breakdancing/v_Breakdancing_id_e0nFm_4AHv0_start_42.5_label_1.mp4
40.01278710365296	2.0009169578552246	41.0	1.0	0.3115360736846924	Doing_kickboxing/v_Doing_kickboxing_id_F4T4D9_qyUA_start_21.0_label_1.mp4
44.01239919662476	2.0005528926849365	68.0	-1.0	0.7201371192932129	Ice_fishing/v_Ice_fishing_id_4zjUalX08hs_start_143.0_label_1.mp4
48.01211905479431	2.000455141067505	136.0	1.0	0.6244368553161621	Shot_put/v_Shot_put_id_15uyX--lvNQ_start_64.0_label_1.mp4
52.01179814338684	2.0006909370422363	61.0	-1.0	0.4568450450897217	Having_an_ice_cream/v_Having_an_ice_cream_id_YREgh0asWlo_start_11.0_label_1.mp4
60.011070013046265	2.000776052474976	156.0	1.0	0.4575278759002685	Tai_chi/v_Tai_chi_id_43uolRJAQKw_start_15.0_label_1.mp4
64.01075100898743	2.017052173614502	50.0	n/a	n/a	Fun_sliding_down/v_Fun_sliding_down_id_8fw_pFLwxYc_start_1.5_label_1.mp4
68.01037502288818	2.0001120567321777	168.0	1.0	0.5705521106719971	Using_uneven_bars/v_Using_uneven_bars_id_0BHvo8dTStA_start_9.0_label_1.mp4
72.01010322570801	2.033273935317993	28.0	-1.0	0.6897580623626709	Cleaning_shoes/v_Cleaning_shoes_id_k47PiCJF87Q_start_55.5_label_1.mp4
76.00969409942627	2.017029047012329	165.0	1.0	0.4422280788421631	Using_the_monkey_bar/v_Using_the_monkey_bar_id_ZxWOHccbikE_start_12.5_label_1.mp4
84.00903415679932	2.000207901000977	87.0	1.0	0.7318599224090576	Painting_fence/v_Painting_fence_id_w5ibAWsfEkE_start_6.0_label_1.mp4
88.0087502002716	2.050253868103028	117.0	-1.0	0.4499251842498779	Polishing_shoes/v_Polishing_shoes_id_JD8sAbRporE_start_32.5_label_1.mp4
92.00836110115053	2.0502679347991943	116.0	-1.0	0.4182970523834228	Polishing_forniture/v_Polishing_forniture_id_YT4D8toMmxg_start_20.5_label_1.mp4
96.00804018974304	2.0172278881073	35.0	-1.0	0.7877211570739746	Disc_dog/v_Disc_dog_id_LqjzRyfKaCo_start_3.0_label_1.mp4
100.00717902183531	2.01739501953125	126.0	-1.0	0.6443967819213867	Riding_bumper_cars/v_Riding_bumper_cars_id_VF-2Dl3rFpo_start_25.0_label_1.mp4
108.00703620910645	2.0005788803100586	30.0	-1.0	0.4615321159362793	Cleaning_windows/v_Cleaning_windows_id_unYy-Py1GsM_start_112.5_label_1.mp4
112.0071461200714	2.0500268936157227	115.0	1.0	0.3079447746276855	Pole_vault/v_Pole_vault_id_1qLoaoyp1Lo_start_99.5_label_1.mp4
116.02298021316528	2.000386953353882	3.0	-1.0	0.9097049236297609	Assembling_bicycle/v_Assembling_bicycle_id_oXbk-uNWrp8_start_176.5_label_1.mp4
120.02262210845949	2.0004360675811768	46.0	n/a	n/a	Drum_corps/v_Drum_corps_id_7dlmPYHEb1E_start_23.0_label_1.mp4
124.02229309082033	2.0003139972686768	56.0	-1.0	0.3663249015808105	Grooming_horse/v_Grooming_horse_id_pcrx7V3obeM_start_28.5_label_1.mp4
132.02161717414856	1.983686923980713	31.0	1.0	0.3517289161682129	Cricket/v_Cricket_id_5JHbTNLMeuY_start_11.0_label_1.mp4
136.0212972164154	2.0004918575286865	174.0	-1.0	0.5273289680480957	Washing_hands/v_Washing_hands_id_AZRnZ_OIJHg_start_47.0_label_1.mp4
140.02094411849976	2.0001089572906494	98.0	-1.0	0.6641278266906738	Playing_drums/v_Playing_drums_id_KZtxFwql8UM_start_42.0_label_1.mp4
144.02057313919067	1.983839988708496	169.0	-1.0	0.7207319736480713	Vacuuming_floor/v_Vacuuming_floor_id_qhM8YWfoXDM_start_26.0_label_1.mp4
148.0202751159668	2.000417947769165	57.0	1.0	0.4724509716033935	Hammer_throw/v_Hammer_throw_id_cnJ7VRbtYss_start_5.0_label_1.mp4
156.0195300579071	2.00048303604126	21.0	-1.0	0.7692019939422607	Camel_ride/v_Camel_ride_id_s-LWA0WsWXM_start_79.0_label_1.mp4
160.01938104629517	2.0002601146698	77.0	-1.0	1.353463888168335	Longboarding/v_Longboarding_id__2ZTx7tzwQw_start_69.0_label_1.mp4
164.01891207695007	2.000556945800781	84.0	1.0	0.7298471927642822	Mowing_the_lawn/v_Mowing_the_lawn_id_u3AQv8kCOzg_start_23.0_label_1.mp4
168.01855301856995	2.033457040786743	80.0	-1.0	0.62510085105896	Making_a_sandwich/v_Making_a_sandwich_id_ntwSTqcT2s0_start_92.5_label_1.mp4
172.0182240009308	2.00032901763916	86.0	-1.0	1.2345819473266602	Painting/v_Painting_id_y7MiZlYIAso_start_14.5_label_1.mp4
180.01759004592896	2.0005321502685547	74.0	-1.0	0.6670851707458496	Knitting/v_Knitting_id_a82__LCJ_gc_start_43.5_label_1.mp4
184.01688504219047	2.0010111331939697	70.0	1.0	1.0913820266723633	Javelin_throw/v_Javelin_throw_id_7uc04eazHV4_start_4.0_label_1.mp4
188.0168662071228	2.000811815261841	37.0	1.0	0.5156230926513672	Dodgeball/v_Dodgeball_id_1J5OgCEDEys_start_73.5_label_1.mp4
192.01654505729675	2.000617027282715	108.0	-1.0	1.1960911750793457	Playing_pool/v_Playing_pool_id_NJ4XV_2DY0U_start_37.0_label_1.mp4
196.01621913909912	2.0009539127349854	95.0	1.0	0.5000181198120117	Playing_beach_volleyball/v_Playing_beach_volleyball_id_f0ZH6Xl2HYE_start_50.0_label_1.mp4
204.015527009964	2.0004701614379883	155.0	1.0	0.4291150569915771	Table_soccer/v_Table_soccer_id_af2241YX0UQ_start_97.0_label_1.mp4
208.01521801948547	2.000624179840088	157.0	1.0	0.6534490585327148	Tango/v_Tango_id_P6vDtQ3WOyc_start_3.5_label_1.mp4
212.01488709449768	2.00020694732666	10.0	1.0	0.6460368633270264	Beer_pong/v_Beer_pong_id_rfK4t9e__c4_start_40.0_label_1.mp4
216.01452708244324	2.0006561279296875	127.0	1.0	1.2701890468597412	Rock_climbing/v_Rock_climbing_id_iI_TPoRMdYc_start_56.0_label_1.mp4
220.0141952037812	2.0003488063812256	76.0	1.0	0.61466383934021	Long_jump/v_Long_jump_id_MJsU64IQ_P4_start_39.0_label_1.mp4
228.0133340358734	2.000620126724243	101.0	-1.0	0.5031740665435791	Playing_guitarra/v_Playing_guitarra_id_EMtJXAW2kBQ_start_48.0_label_1.mp4
232.0131411552429	2.0006489753723145	26.0	-1.0	0.9034771919250488	Chopping_wood/v_Chopping_wood_id_xdNCoDjgREY_start_104.5_label_1.mp4
236.01280403137207	2.000499963760376	139.0	1.0	0.5439071655273438	Skateboarding/v_Skateboarding_id_XLVraCnI5Kc_start_78.0_label_1.mp4
240.0124921798706	2.000838041305542	6.0	-1.0	1.1281170845031738	Ballet/v_Ballet_id_gnMbEstCrZ0_start_36.5_label_1.mp4
244.012136220932	2.0006918907165527	158.0	-1.0	0.5364720821380615	Throwing_darts/v_Throwing_darts_id_SbANNj9U-x0_start_13.0_label_1.mp4
252.0115110874176	2.000447988510132	69.0	-1.0	0.8573291301727295	Ironing_clothes/v_Ironing_clothes_id_3c6JxOtsaw0_start_39.0_label_1.mp4
256.01113414764404	2.000527858734131	130.0	1.0	0.9378681182861328	Rope_skipping/v_Rope_skipping_id_wdY6QKSrQf0_start_4.5_label_1.mp4
260.01079320907604	1.9999699592590328	23.0	1.0	0.4663541316986084	Capoeira/v_Capoeira_id_yAS9_C53Va0_start_81.0_label_1.mp4
264.01048612594604	2.000530958175659	45.0	-1.0	0.8343021869659424	Drinking_coffee/v_Drinking_coffee_id_POQilWkpizk_start_166.5_label_1.mp4
268.0101342201233	2.0168240070343018	172.0	1.0	0.5302591323852539	Walking_the_dog/v_Walking_the_dog_id_mHobZR2xT_E_start_3.0_label_1.mp4
276.0094270706177	2.0006120204925537	94.0	-1.0	0.7951490879058838	Playing_bagpipes/v_Playing_bagpipes_id_Hma2H5EMiFE_start_12.0_label_1.mp4
280.0091202259064	2.0171499252319336	73.0	-1.0	0.9069249629974364	Kneeling/v_Kneeling_id_r8zsTBUgnCE_start_16.0_label_1.mp4
284.0084381103516	2.0008440017700195	170.0	1.0	1.5962300300598145	Volleyball/v_Volleyball_id_D9Dk2ljbiV8_start_9.0_label_1.mp4
288.0083842277527	2.0172908306121826	96.0	-1.0	1.0117311477661133	Playing_blackjack/v_Playing_blackjack_id_-TzbyGizxvY_start_94.0_label_1.mp4
292.00808119773865	2.0170018672943115	75.0	-1.0	0.7080261707305908	Laying_tile/v_Laying_tile_id_rVcvP80hElw_start_41.0_label_1.mp4
