onset	duration	trial_type	response	response_time	stim_file
12.015286922454834	2.067363977432251	139.0	1.0	1.0677111148834229	Skateboarding/v_Skateboarding_id_8FtxymqXIPE_start_12.0_label_1.mp4
16.01495099067688	2.0002710819244385	74.0	-1.0	0.4867298603057861	Knitting/v_Knitting_id_LWOjAdmMZzs_start_71.5_label_1.mp4
20.01460003852844	2.000673055648804	180.0	1.0	0.5749800205230713	Zumba/v_Zumba_id_8YT4TS62f04_start_44.0_label_1.mp4
24.014216899871823	2.0005130767822266	85.0	-1.0	0.7834072113037109	Paintball/v_Paintball_id_soS4udg5Obk_start_44.0_label_1.mp4
28.01393294334412	2.0008130073547363	14.0	1.0	0.6956140995025635	Breakdancing/v_Breakdancing_id_by1uJZqyPZM_start_146.5_label_1.mp4
36.01323103904724	2.00036096572876	70.0	1.0	0.5364699363708496	Javelin_throw/v_Javelin_throw_id_IrkFCn1Qam4_start_5.0_label_1.mp4
40.012906074523926	2.000627040863037	10.0	1.0	1.1607389450073242	Beer_pong/v_Beer_pong_id_fiRq1knRdek_start_4.5_label_1.mp4
44.01258707046509	2.0005719661712646	84.0	-1.0	1.3131201267242432	Mowing_the_lawn/v_Mowing_the_lawn_id_9IfVCOni6j8_start_74.5_label_1.mp4
48.01226091384888	2.033738136291504	32.0	1.0	0.440119981765747	Croquet/v_Croquet_id_KVr8oyPFpik_start_23.0_label_1.mp4
52.0118899345398	2.000526189804077	13.0	-1.0	0.785789966583252	Braiding_hair/v_Braiding_hair_id_MMyYEMVTnOY_start_26.5_label_1.mp4
60.01121807098389	2.000635862350464	7.0	-1.0	0.5464320182800293	Bathing_dog/v_Bathing_dog_id_pR5yLkN9vAY_start_51.5_label_1.mp4
64.01105308532715	2.000005006790161	6.0	1.0	0.7231647968292236	Ballet/v_Ballet_id_GvDnG3NkJvI_start_11.5_label_1.mp4
68.0105791091919	1.9998819828033447	96.0	-1.0	0.7635810375213623	Playing_blackjack/v_Playing_blackjack_id_wJpe7btzRDE_start_73.0_label_1.mp4
72.01019310951233	2.000770807266236	8.0	1.0	0.7233898639678955	Baton_twirling/v_Baton_twirling_id_eA_AqAIFW8I_start_10.0_label_1.mp4
76.00984811782837	2.0000948905944824	148.0	-1.0	0.8604569435119629	Spread_mulch/v_Spread_mulch_id_c90yU3uzG4w_start_85.0_label_1.mp4
84.00917410850525	2.000679016113281	52.0	1.0	0.628446102142334	Getting_a_haircut/v_Getting_a_haircut_id_abMIxqzg37I_start_14.5_label_1.mp4
88.00881791114807	2.0002100467681885	151.0	1.0	0.90140700340271	Sumo/v_Sumo_id_A14z2JdyblE_start_0.5_label_1.mp4
92.00849103927612	2.0170788764953613	162.0	1.0	0.3645749092102051	Tumbling/v_Tumbling_id_n8DvAtqJjkQ_start_9.0_label_1.mp4
96.00817012786864	2.0169689655303955	110.0	-1.0	0.5569250583648682	Playing_rubik_cube/v_Playing_rubik_cube_id_MkisL4_yO-Y_start_4.0_label_1.mp4
100.00777506828308	2.0170199871063232	161.0	1.0	0.8613200187683105	Tug_of_war/v_Tug_of_war_id_OIVF-fwXo7M_start_18.0_label_1.mp4
108.02380609512328	1.9838988780975344	93.0	n/a	n/a	Playing_badminton/v_Playing_badminton_id_aC-fx4EjTHQ_start_11.5_label_1.mp4
112.00677990913393	2.017108201980591	135.0	-1.0	0.6143069267272949	Shaving/v_Shaving_id_aivgPVjjPVg_start_104.5_label_1.mp4
116.00644397735596	2.017104148864746	103.0	1.0	1.1906530857086182	Playing_ice_hockey/v_Playing_ice_hockey_id_ytlNooKlvlA_start_11.0_label_1.mp4
120.00557899475098	2.017341136932373	37.0	1.0	1.127418041229248	Dodgeball/v_Dodgeball_id_Mzad8LBf-Aw_start_31.0_label_1.mp4
124.02244305610655	2.000383853912353	38.0	1.0	0.5513668060302734	Doing_crunches/v_Doing_crunches_id_qSZSKAv7nck_start_2.5_label_1.mp4
132.02179193496704	2.000392198562622	114.0	1.0	0.8400218486785889	Playing_water_polo/v_Playing_water_polo_id_l2n_O2guRUU_start_47.0_label_1.mp4
136.02137804031372	2.000149965286255	23.0	-1.0	0.7207698822021484	Capoeira/v_Capoeira_id_JthAAG8nJOw_start_32.0_label_1.mp4
140.0210530757904	2.000347852706909	47.0	1.0	0.8167190551757812	Elliptical_trainer/v_Elliptical_trainer_id_1ZsE77fNCoo_start_1.5_label_1.mp4
144.02072310447693	2.0004138946533203	53.0	-1.0	0.5930719375610352	Getting_a_piercing/v_Getting_a_piercing_id_5qwMIcDEolQ_start_33.0_label_1.mp4
148.0204050540924	2.000391960144043	145.0	1.0	0.6974349021911621	Snow_tubing/v_Snow_tubing_id_ozXNtfa7X-g_start_15.0_label_1.mp4
156.01970601081848	2.0004360675811768	72.0	-1.0	0.9140958786010742	Kite_flying/v_Kite_flying_id_8RRQH9AWwog_start_43.0_label_1.mp4
160.01935505867004	2.0003819465637207	173.0	-1.0	0.4503970146179199	Washing_dishes/v_Washing_dishes_id_bzBoaqBnOYc_start_100.0_label_1.mp4
164.0190269947052	2.000282049179077	113.0	-1.0	0.4751241207122803	Playing_violin/v_Playing_violin_id_47VVvUwD4M4_start_67.0_label_1.mp4
168.0186779499054	2.0005640983581543	69.0	-1.0	0.4431500434875488	Ironing_clothes/v_Ironing_clothes_id_JS5tU9hk4BM_start_28.0_label_1.mp4
172.018306016922	2.0003840923309326	138.0	n/a	n/a	Shuffleboard/v_Shuffleboard_id_MDpr-kEW9Kc_start_21.0_label_1.mp4
180.01771593093872	2.0003490447998047	36.0	1.0	1.1002068519592283	Discus_throw/v_Discus_throw_id_TZY5GrIP8gM_start_8.0_label_1.mp4
184.0173001289368	2.0006039142608643	129.0	1.0	0.6924159526824951	Rollerblading/v_Rollerblading_id_E2uuAipaN58_start_78.5_label_1.mp4
188.01701092720032	2.016993999481201	108.0	1.0	0.2601861953735351	Playing_pool/v_Playing_pool_id_5-n0iJtVYgs_start_3.5_label_1.mp4
192.0171320438385	2.000073909759521	33.0	-1.0	1.0050950050354004	Cutting_the_grass/v_Cutting_the_grass_id_MYxZI8jcP0E_start_85.5_label_1.mp4
196.01633405685425	2.000586986541748	76.0	1.0	0.7495670318603516	Long_jump/v_Long_jump_id_BdA2a-Y728o_start_13.5_label_1.mp4
204.01566791534424	2.000277042388916	147.0	1.0	0.0005230903625488	Spinning/v_Spinning_id_0pXuzeS6kWw_start_175.0_label_1.mp4
208.0152781009674	2.0005760192871094	99.0	1.0	0.7344729900360107	Playing_field_hockey/v_Playing_field_hockey_id_BusnoZOAOAQ_start_8.5_label_1.mp4
212.01498293876648	2.0338101387023926	78.0	-1.0	0.517549991607666	Making_a_cake/v_Making_a_cake_id_az9zpTt0uqI_start_121.0_label_1.mp4
216.0146679878235	2.033743143081665	88.0	-1.0	1.1099131107330322	Painting_furniture/v_Painting_furniture_id_ciE6HeNLrs8_start_20.0_label_1.mp4
220.0143039226532	2.0004570484161377	111.0	-1.0	0.671781063079834	Playing_saxophone/v_Playing_saxophone_id_qRmtxP9-A54_start_60.0_label_1.mp4
228.01362800598145	2.0004429817199707	49.0	-1.0	0.952221155166626	Fixing_the_roof/v_Fixing_the_roof_id_lKLvAJ0iTT0_start_50.5_label_1.mp4
232.0132749080658	2.000705003738404	171.0	1.0	1.000493049621582	Wakeboarding/v_Wakeboarding_id_LJOlY2QL1ik_start_40.5_label_1.mp4
236.0129270553589	2.0006160736083984	16.0	n/a	n/a	Brushing_teeth/v_Brushing_teeth_id_Ds-LrRrLj9c_start_43.5_label_1.mp4
240.012629032135	2.00055193901062	116.0	-1.0	0.8732261657714844	Polishing_forniture/v_Polishing_forniture_id_DkcbpQJ5CcA_start_144.5_label_1.mp4
244.01225304603577	2.000437021255493	115.0	n/a	n/a	Pole_vault/v_Pole_vault_id_MnuH4frZAq0_start_13.0_label_1.mp4
252.0116240978241	2.000372886657715	164.0	1.0	1.290235996246338	Using_the_balance_beam/v_Using_the_balance_beam_id_t0cQhp8o-_8_start_35.0_label_1.mp4
256.01123690605164	2.000364065170288	109.0	1.0	0.7788980007171631	Playing_racquetball/v_Playing_racquetball_id_sVTIuQHAeGs_start_33.5_label_1.mp4
260.01093792915344	2.000303030014038	30.0	-1.0	0.7633850574493408	Cleaning_windows/v_Cleaning_windows_id_7TULYhInTBo_start_32.5_label_1.mp4
264.0105640888214	2.0007588863372803	178.0	1.0	1.4112071990966797	Windsurfing/v_Windsurfing_id_OfjwvwEpjfA_start_32.0_label_1.mp4
268.01026701927185	2.000088930130005	152.0	1.0	0.748115062713623	Surfing/v_Surfing_id__JBuDYeyJXw_start_7.5_label_1.mp4
276.0095760822296	2.000720977783203	95.0	1.0	0.4202499389648437	Playing_beach_volleyball/v_Playing_beach_volleyball_id_Fw5Hq4skmQs_start_8.0_label_1.mp4
280.0092120170593	2.017143964767456	125.0	1.0	1.267916917800903	Raking_leaves/v_Raking_leaves_id__4ehn1lgEsg_start_13.5_label_1.mp4
284.00886392593384	2.017292022705078	3.0	-1.0	1.0201308727264404	Assembling_bicycle/v_Assembling_bicycle_id_sXPc1C_Tr6w_start_27.5_label_1.mp4
288.0085279941559	2.017108917236328	155.0	-1.0	0.6607499122619629	Table_soccer/v_Table_soccer_id_to7BGW1eP44_start_36.0_label_1.mp4
292.024936914444	2.0000669956207275	42.0	1.0	1.1493570804595947	Doing_motocross/v_Doing_motocross_id_1qi_oOa04RQ_start_4.5_label_1.mp4
