onset	duration	trial_type	response	response_time	stim_file
12.01532793045044	2.067117214202881	87.0	-1.0	1.2535450458526611	Painting_fence/v_Painting_fence_id_7Z_C0pL_Abc_start_101.0_label_1.mp4
16.01470112800598	2.000797986984253	59.0	-1.0	0.4324231147766113	Hand_washing_clothes/v_Hand_washing_clothes_id_AZeyYBWFGt8_start_87.0_label_1.mp4
20.014549016952515	1.999951124191284	44.0	1.0	0.5133869647979736	Doing_step_aerobics/v_Doing_step_aerobics_id_u5Kkse8yVg8_start_14.0_label_1.mp4
24.01416802406311	2.0008649826049805	5.0	n/a	n/a	Baking_cookies/v_Baking_cookies_id_q_4F9EuUZLU_start_89.5_label_1.mp4
28.013867139816284	2.0006699562072754	41.0	1.0	0.4735341072082519	Doing_kickboxing/v_Doing_kickboxing_id_NRlMbwzvZRY_start_45.5_label_1.mp4
36.013314962387085	2.0002601146698	172.0	n/a	n/a	Walking_the_dog/v_Walking_the_dog_id_W8tuoYCEr4Y_start_117.0_label_1.mp4
40.013160943984985	2.000594139099121	20.0	1.0	0.5944950580596924	Calf_roping/v_Calf_roping_id_XDIFwWFAzBc_start_13.5_label_1.mp4
44.01249313354492	2.00107479095459	66.0	1.0	0.6585509777069092	Hula_hoop/v_Hula_hoop_id_3bZndOZ4x8I_start_86.0_label_1.mp4
48.012120962142944	2.0004630088806152	140.0	1.0	0.6033329963684082	Skiing/v_Skiing_id_ebK6VYoQatY_start_13.0_label_1.mp4
52.01181602478027	2.0009970664978027	57.0	1.0	0.9959239959716796	Hammer_throw/v_Hammer_throw_id_GTi-fl3p1gE_start_15.0_label_1.mp4
60.01113295555115	2.000429153442383	98.0	-1.0	0.5323221683502197	Playing_drums/v_Playing_drums_id_48TWPs8LOas_start_105.5_label_1.mp4
64.01078295707703	2.0006940364837646	112.0	1.0	0.9245619773864746	Playing_squash/v_Playing_squash_id_PQPyCNth2ao_start_14.5_label_1.mp4
68.0104010105133	2.0166659355163574	159.0	-1.0	0.5727310180664062	Trimming_branches_or_hedges/v_Trimming_branches_or_hedges_id_4zoTfoZJMUg_start_37.0_label_1.mp4
72.01012802124023	2.0001940727233887	26.0	1.0	1.2777760028839111	Chopping_wood/v_Chopping_wood_id_Er_llwwMRRc_start_93.0_label_1.mp4
76.00975894927979	2.0005760192871094	146.0	1.0	0.8936660289764404	Snowboarding/v_Snowboarding_id_6B9MOI5o_Ug_start_20.0_label_1.mp4
84.00922298431396	2.000365972518921	160.0	1.0	1.3904831409454346	Triple_jump/v_Triple_jump_id_kFFnciVi_0U_start_10.0_label_1.mp4
88.00875806808472	2.0169379711151123	1.0	1.0	0.6060740947723389	Archery/v_Archery_id_jM49mtFiP2g_start_111.5_label_1.mp4
92.00841999053956	2.017061948776245	91.0	1.0	0.9185001850128174	Plataform_diving/v_Plataform_diving_id_TuLVDBPuAhQ_start_46.5_label_1.mp4
96.00807905197144	2.016779899597168	75.0	-1.0	0.7831089496612549	Laying_tile/v_Laying_tile_id_7nBkV4ecWos_start_178.5_label_1.mp4
100.00825214385986	2.049736976623535	28.0	-1.0	0.6857872009277344	Cleaning_shoes/v_Cleaning_shoes_id_lKKoAgBukAg_start_83.5_label_1.mp4
108.00710105895996	2.0337159633636475	142.0	-1.0	0.5591089725494385	Smoking_a_cigarette/v_Smoking_a_cigarette_id_rrAR4C-SFXw_start_63.0_label_1.mp4
112.0230839252472	2.0005970001220703	71.0	1.0	0.6322281360626221	Kayaking/v_Kayaking_id_rGhHG3fsrLc_start_142.0_label_1.mp4
116.02301692962646	2.0004241466522217	61.0	-1.0	1.9771490097045896	Having_an_ice_cream/v_Having_an_ice_cream_id__DihUiYKJ0Y_start_35.0_label_1.mp4
120.0226550102234	2.018621921539306	94.0	-1.0	0.984260082244873	Playing_bagpipes/v_Playing_bagpipes_id_XZm44aHqg5k_start_116.5_label_1.mp4
124.0223319530487	2.0002620220184326	97.0	-1.0	0.4414138793945312	Playing_congas/v_Playing_congas_id_4JQZ1wAz_EU_start_119.0_label_1.mp4
132.0216691493988	2.0003349781036377	50.0	1.0	0.0005478858947753	Fun_sliding_down/v_Fun_sliding_down_id_RUCGVCjoBQw_start_41.5_label_1.mp4
136.02135801315308	2.0004169940948486	131.0	1.0	0.4821419715881347	Running_a_marathon/v_Running_a_marathon_id_CG8g_qhsEfU_start_32.0_label_1.mp4
140.02113795280457	2.000307083129883	11.0	1.0	0.4904940128326416	Belly_dance/v_Belly_dance_id_VK4qkRNeH38_start_25.0_label_1.mp4
144.02061700820923	2.000308990478516	39.0	1.0	0.5869729518890381	Doing_fencing/v_Doing_fencing_id_LJD9ozPZT5w_start_14.0_label_1.mp4
148.02030301094055	2.0004169940948486	163.0	1.0	0.4431819915771484	Using_parallel_bars/v_Using_parallel_bars_id_rJCpWZMCchU_start_17.5_label_1.mp4
156.02011895179749	1.9998860359191888	81.0	-1.0	0.587878942489624	Making_an_omelette/v_Making_an_omelette_id_hfpWMwtBSpU_start_82.0_label_1.mp4
160.01927399635315	2.000586986541748	48.0	-1.0	0.3722310066223144	Fixing_bicycle/v_Fixing_bicycle_id_Lbi1HQMQIBo_start_166.0_label_1.mp4
164.01899003982544	2.000582933425904	55.0	-1.0	0.8764998912811279	Grooming_dog/v_Grooming_dog_id_LWzMnFXvl1E_start_101.0_label_1.mp4
168.01863503456116	2.0006070137023926	179.0	-1.0	0.4685981273651123	Wrapping_presents/v_Wrapping_presents_id_3Kf7u27BTd0_start_48.0_label_1.mp4
172.01830911636353	2.000464916229248	18.0	1.0	0.6532511711120605	Bullfighting/v_Bullfighting_id_9HwOZQS_el4_start_12.5_label_1.mp4
180.01763010025024	1.9839389324188232	62.0	1.0	0.0866100788116455	High_jump/v_High_jump_id_uL-NxsLwBSY_start_20.0_label_1.mp4
184.0179481506348	1.9997458457946773	46.0	-1.0	0.4462769031524658	Drum_corps/v_Drum_corps_id_rbVKZupNvZ0_start_17.0_label_1.mp4
188.0169699192047	2.000352144241333	126.0	-1.0	0.4627280235290527	Riding_bumper_cars/v_Riding_bumper_cars_id_qJO-AdAKfV8_start_157.0_label_1.mp4
192.01658701896667	2.001265048980713	2.0	-1.0	0.5583829879760742	Arm_wrestling/v_Arm_wrestling_id_X1tWrQa2uUg_start_101.5_label_1.mp4
196.0162649154663	2.000863075256348	175.0	1.0	0.4631400108337402	Waterskiing/v_Waterskiing_id_7lHo38Zyh0k_start_14.0_label_1.mp4
204.01571393013	2.0005390644073486	29.0	-1.0	0.4798429012298584	Cleaning_sink/v_Cleaning_sink_id_4hSGNEPm0JE_start_71.5_label_1.mp4
208.01523113250727	2.000396013259888	141.0	1.0	1.5043089389801023	Slacklining/v_Slacklining_id_rxpygIEMe8Q_start_65.5_label_1.mp4
212.0147399902344	2.000827074050904	24.0	-1.0	0.824409008026123	Carving_jack-o-lanterns/v_Carving_jack-o-lanterns_id_OVlsI-bWFDE_start_72.5_label_1.mp4
216.014545917511	2.00065016746521	15.0	-1.0	0.9530439376831056	Brushing_hair/v_Brushing_hair_id_U07URiHyR4w_start_59.5_label_1.mp4
220.01428604125977	2.0003020763397217	136.0	1.0	1.0253660678863523	Shot_put/v_Shot_put_id_92QeO24I7BE_start_5.5_label_1.mp4
228.0135791301728	2.000319004058838	158.0	1.0	0.8340270519256592	Throwing_darts/v_Throwing_darts_id_pY2zlNIkIqo_start_70.0_label_1.mp4
232.0132210254669	2.000391960144043	34.0	n/a	n/a	Decorating_the_Christmas_tree/v_Decorating_the_Christmas_tree_id_ESIZ0nf8-KQ_start_82.5_label_1.mp4
236.01284098625183	2.000596046447754	132.0	1.0	0.6026930809020996	Sailing/v_Sailing_id_BnIbHawqiZU_start_34.0_label_1.mp4
240.0127410888672	2.000185012817383	128.0	-1.0	0.851111888885498	Rock-paper-scissors/v_Rock-paper-scissors_id_rxKxvQITFHI_start_21.5_label_1.mp4
244.01233196258545	2.0004611015319824	73.0	-1.0	1.0914509296417236	Kneeling/v_Kneeling_id_RYJnl6ezEcc_start_5.5_label_1.mp4
252.01152110099792	2.050323963165283	127.0	1.0	0.8341398239135742	Rock_climbing/v_Rock_climbing_id_kRKz0lQjP20_start_7.0_label_1.mp4
256.0111920833588	1.967206954956055	83.0	-1.0	0.8137149810791016	Mooping_floor/v_Mooping_floor_id_BLpKwYvcz14_start_59.5_label_1.mp4
260.0109031200409	1.9999139308929443	21.0	-1.0	0.6612739562988281	Camel_ride/v_Camel_ride_id_LwXcvCC_HSo_start_11.0_label_1.mp4
264.0105299949646	2.050290107727051	177.0	-1.0	1.1310811042785645	Welding/v_Welding_id_vPzYsGKbbfk_start_119.0_label_1.mp4
268.0103981494904	2.0501859188079834	150.0	-1.0	0.5634520053863525	Starting_a_campfire/v_Starting_a_campfire_id_8rYDWOG8VCE_start_53.5_label_1.mp4
276.00949001312256	2.0337460041046143	106.0	-1.0	0.5568060874938965	Playing_piano/v_Playing_piano_id_IXPCc1VtBlU_start_19.5_label_1.mp4
280.009134054184	2.050373077392578	27.0	1.0	0.5884900093078613	Clean_and_jerk/v_Clean_and_jerk_id_TiWdG0UCJzk_start_53.0_label_1.mp4
284.0087900161743	2.050465106964112	25.0	1.0	1.01282000541687	Cheerleading/v_Cheerleading_id_xEOzucWyTlo_start_117.0_label_1.mp4
288.0084891319275	2.0002009868621826	9.0	1.0	0.951545000076294	Beach_soccer/v_Beach_soccer_id__UnsbiVrsU0_start_9.5_label_1.mp4
292.0081479549408	2.0169870853424072	117.0	-1.0	0.6629009246826172	Polishing_shoes/v_Polishing_shoes_id_6x_j4PHQfJE_start_28.0_label_1.mp4
