onset	duration	trial_type	response	response_time	stim_file
12.015375137329102	2.0669219493865967	97.0	-1.0	0.3351650238037109	Playing_congas/v_Playing_congas_id_4tE8AuIE7Vg_start_3.0_label_1.mp4
16.015056133270264	2.000645875930786	163.0	1.0	0.4820871353149414	Using_parallel_bars/v_Using_parallel_bars_id_KI54zfWtyO0_start_37.5_label_1.mp4
20.01470112800598	2.0005910396575928	156.0	-1.0	0.5144491195678711	Tai_chi/v_Tai_chi_id_O_9xtBKhM9c_start_7.5_label_1.mp4
24.014414072036743	2.0006229877471924	5.0	-1.0	0.3547029495239258	Baking_cookies/v_Baking_cookies_id_OKr7Poalu8U_start_10.0_label_1.mp4
28.014055967330933	2.0339062213897705	33.0	-1.0	0.3298509120941162	Cutting_the_grass/v_Cutting_the_grass_id_u9lilpAvU8o_start_8.0_label_1.mp4
36.013512134552	2.000601053237915	110.0	-1.0	0.3717398643493652	Playing_rubik_cube/v_Playing_rubik_cube_id_80p9p_-3EgU_start_35.5_label_1.mp4
40.01313018798828	2.001842975616455	109.0	1.0	0.4269371032714844	Playing_racquetball/v_Playing_racquetball_id_2ArGtB04oyM_start_33.0_label_1.mp4
44.01280617713928	2.000573873519897	88.0	-1.0	0.4764301776885986	Painting_furniture/v_Painting_furniture_id_FPItkkXCs74_start_7.5_label_1.mp4
48.01248002052307	2.0008111000061035	60.0	-1.0	0.3728117942810058	Hanging_wallpaper/v_Hanging_wallpaper_id_Lb5wJR0FZHU_start_12.5_label_1.mp4
52.01221418380737	2.000661849975586	39.0	1.0	0.3892059326171875	Doing_fencing/v_Doing_fencing_id_45teK0yxawA_start_69.0_label_1.mp4
60.01153516769409	2.0347819328308105	139.0	-1.0	0.3798060417175293	Skateboarding/v_Skateboarding_id_pzJhz1D4tEE_start_142.5_label_1.mp4
64.01120901107788	2.000317096710205	157.0	-1.0	0.5425889492034912	Tango/v_Tango_id_gKCQAGsxgvo_start_34.5_label_1.mp4
68.01087498664856	2.0008461475372314	67.0	1.0	0.3982939720153808	Hurling/v_Hurling_id_puIQn24rOzs_start_71.0_label_1.mp4
72.01063704490662	2.000023126602173	180.0	-1.0	0.3673920631408691	Zumba/v_Zumba_id__dN9O6EBIDw_start_102.0_label_1.mp4
76.01027297973633	2.017108201980591	168.0	1.0	0.4707159996032715	Using_uneven_bars/v_Using_uneven_bars_id_BgyW0IwRPFQ_start_7.5_label_1.mp4
84.00966215133667	2.0006649494171143	53.0	-1.0	0.3918259143829345	Getting_a_piercing/v_Getting_a_piercing_id_-GE8GIKrqKc_start_2.0_label_1.mp4
88.00932502746582	2.0003459453582764	77.0	-1.0	0.4726879596710205	Longboarding/v_Longboarding_id_55oAD6JRMGg_start_11.5_label_1.mp4
92.00903916358948	2.017162799835205	35.0	-1.0	0.391909122467041	Disc_dog/v_Disc_dog_id_jmoFK8F4ayc_start_53.5_label_1.mp4
96.00874209403992	1.99996304512024	50.0	-1.0	0.3535029888153076	Fun_sliding_down/v_Fun_sliding_down_id_XnVSC3L91Uk_start_13.0_label_1.mp4
100.00837707519533	2.017148017883301	138.0	-1.0	0.4726359844207763	Shuffleboard/v_Shuffleboard_id_HTwixy0SIwo_start_81.0_label_1.mp4
108.00798511505128	2.000558853149414	92.0	-1.0	0.4418020248413086	Playing_accordion/v_Playing_accordion_id_YVsSNbM6_nc_start_33.0_label_1.mp4
112.02409601211548	2.000370979309082	159.0	-1.0	0.68172287940979	Trimming_branches_or_hedges/v_Trimming_branches_or_hedges_id_t2_OPTaNduY_start_10.5_label_1.mp4
116.00716304779051	2.017061948776245	61.0	-1.0	0.4019849300384521	Having_an_ice_cream/v_Having_an_ice_cream_id_XwnX-N_ioNo_start_72.5_label_1.mp4
120.02351403236388	2.000541925430298	3.0	-1.0	0.4343721866607666	Assembling_bicycle/v_Assembling_bicycle_id_R_DgaJThOzo_start_43.5_label_1.mp4
124.0231750011444	2.000586032867432	56.0	-1.0	0.4185380935668945	Grooming_horse/v_Grooming_horse_id__f7AWiBYKRs_start_61.0_label_1.mp4
132.02254915237427	2.033798933029175	71.0	-1.0	0.5941600799560547	Kayaking/v_Kayaking_id_OB1T9QH4usc_start_23.5_label_1.mp4
136.02219414711	2.0338330268859863	174.0	-1.0	0.6343832015991211	Washing_hands/v_Washing_hands_id_Q3hfxOyJvvM_start_32.5_label_1.mp4
140.0218801498413	2.0004868507385254	102.0	-1.0	0.3001201152801513	Playing_harmonica/v_Playing_harmonica_id_tMokseCpNpU_start_162.5_label_1.mp4
144.02157616615295	2.000358819961548	119.0	-1.0	0.5643742084503174	Preparing_pasta/v_Preparing_pasta_id_aoDYMkSTHH8_start_83.0_label_1.mp4
148.0212390422821	2.0004351139068604	69.0	-1.0	0.5248720645904541	Ironing_clothes/v_Ironing_clothes_id_ZsmjDYj31ro_start_16.0_label_1.mp4
156.0206561088562	2.0004079341888428	126.0	-1.0	0.4934041500091553	Riding_bumper_cars/v_Riding_bumper_cars_id_WF7p3HVGyJs_start_4.0_label_1.mp4
160.02030611038208	2.000623941421509	76.0	1.0	0.4617130756378174	Long_jump/v_Long_jump_id_R2Dsv-UNDfQ_start_3.5_label_1.mp4
164.0199580192566	2.0005111694335938	73.0	1.0	0.6861250400543213	Kneeling/v_Kneeling_id_rlrDsInrrzw_start_14.0_label_1.mp4
168.01963901519775	2.00048303604126	179.0	-1.0	0.4544920921325683	Wrapping_presents/v_Wrapping_presents_id_RCuFpyws3t4_start_15.5_label_1.mp4
172.0193531513214	2.0003390312194824	124.0	-1.0	0.4068200588226318	Rafting/v_Rafting_id_fVtBCt9nTb0_start_40.5_label_1.mp4
180.01870107650757	2.000433921813965	164.0	1.0	0.4475209712982178	Using_the_balance_beam/v_Using_the_balance_beam_id_ErxGwMXLXqY_start_46.0_label_1.mp4
184.01836109161377	2.000653028488159	169.0	-1.0	0.4877769947052002	Vacuuming_floor/v_Vacuuming_floor_id_xR49U-Q5LJY_start_14.0_label_1.mp4
188.01811599731445	2.033957004547119	28.0	-1.0	1.4546730518341064	Cleaning_shoes/v_Cleaning_shoes_id_RJPEg6u2qa4_start_31.5_label_1.mp4
192.0177230834961	2.0005970001220703	32.0	1.0	0.536545991897583	Croquet/v_Croquet_id_WRTcUuCTc14_start_21.0_label_1.mp4
196.0174331665039	2.0005040168762207	91.0	1.0	0.640841007232666	Plataform_diving/v_Plataform_diving_id_wLboeu6pN2c_start_2.5_label_1.mp4
204.01677918434143	2.000341892242432	155.0	-1.0	0.5936839580535889	Table_soccer/v_Table_soccer_id_KAGHoIg0Ubg_start_176.0_label_1.mp4
208.0164771080017	2.000627994537353	176.0	-1.0	1.0739610195159912	Waxing_skis/v_Waxing_skis_id_p25RWenV_1s_start_9.0_label_1.mp4
212.0161271095276	2.0005130767822266	26.0	-1.0	0.5462329387664795	Chopping_wood/v_Chopping_wood_id_ATVEGwaALXs_start_89.5_label_1.mp4
216.0158441066742	2.0005669593811035	93.0	1.0	0.3786170482635498	Playing_badminton/v_Playing_badminton_id_dRgpJe0ijPc_start_11.0_label_1.mp4
220.01551914215088	2.000398874282837	151.0	1.0	0.3869659900665283	Sumo/v_Sumo_id_daHnicwGnBM_start_33.0_label_1.mp4
228.01488709449768	2.0004448890686035	18.0	1.0	0.5796339511871338	Bullfighting/v_Bullfighting_id__dDGe4Hwxyo_start_19.0_label_1.mp4
232.01449608802795	2.000706911087036	129.0	1.0	0.4759290218353271	Rollerblading/v_Rollerblading_id_B3SF3G7xklQ_start_49.5_label_1.mp4
236.01420998573303	2.000571012496948	104.0	-1.0	0.5483400821685791	Playing_kickball/v_Playing_kickball_id_zO4ekOCVwOY_start_75.5_label_1.mp4
240.01388311386108	2.000653028488159	90.0	-1.0	1.036632061004639	Plastering/v_Plastering_id_Oht2ODXSoSE_start_90.0_label_1.mp4
244.01358008384705	2.000446081161499	175.0	-1.0	0.5249960422515869	Waterskiing/v_Waterskiing_id_LdR6Et65Fdo_start_55.5_label_1.mp4
252.0129401683808	2.0005898475646973	59.0	-1.0	0.3579170703887939	Hand_washing_clothes/v_Hand_washing_clothes_id_lIgvDwDOSx8_start_8.0_label_1.mp4
256.0126440525055	2.0006511211395264	132.0	-1.0	0.4859390258789062	Sailing/v_Sailing_id_sxyjupiYY8U_start_15.0_label_1.mp4
260.0123240947724	2.0171048641204834	115.0	1.0	0.4457888603210449	Pole_vault/v_Pole_vault_id_Iowx8mLb9bY_start_4.5_label_1.mp4
264.01200819015503	2.00050687789917	30.0	-1.0	0.3828408718109131	Cleaning_windows/v_Cleaning_windows_id_ULch-GHNQe0_start_41.0_label_1.mp4
268.0117061138153	2.000279903411865	45.0	-1.0	0.4954719543457031	Drinking_coffee/v_Drinking_coffee_id_6St0ft1HDn4_start_2.0_label_1.mp4
276.01105403900146	2.000333070755005	66.0	-1.0	0.4398801326751709	Hula_hoop/v_Hula_hoop_id_Te0Dg9Ej3_w_start_43.0_label_1.mp4
280.0107350349426	2.000350952148437	68.0	-1.0	1.1285169124603271	Ice_fishing/v_Ice_fishing_id_aGAANFUMIrs_start_7.5_label_1.mp4
284.0104341506958	2.000821828842163	36.0	1.0	0.6482071876525879	Discus_throw/v_Discus_throw_id_s0PG_LAI6YY_start_17.5_label_1.mp4
288.01009917259216	2.0005528926849365	131.0	1.0	0.6328551769256592	Running_a_marathon/v_Running_a_marathon_id_sWnjIrJpEu0_start_131.0_label_1.mp4
292.0098140239716	2.0504190921783447	137.0	-1.0	0.3831679821014404	Shoveling_snow/v_Shoveling_snow_id_tbMmB4lG93c_start_33.0_label_1.mp4
