onset	duration	trial_type	response	response_time	stim_file
12.015254974365234	2.0672640800476074	60.0	-1.0	0.3895750045776367	Hanging_wallpaper/v_Hanging_wallpaper_id_AKxh9GCJhpQ_start_190.5_label_1.mp4
16.01493191719055	2.000692129135132	91.0	-1.0	0.6245408058166504	Plataform_diving/v_Plataform_diving_id_EKRW8MZRzZE_start_3.0_label_1.mp4
20.01468396186829	2.000343084335327	137.0	-1.0	0.6810500621795654	Shoveling_snow/v_Shoveling_snow_id_cCzEUO7JpzA_start_48.0_label_1.mp4
24.014296054840088	2.000607967376709	130.0	1.0	0.3852238655090332	Rope_skipping/v_Rope_skipping_id_BGW_2xjQA1A_start_45.0_label_1.mp4
28.01408100128174	2.0004470348358154	49.0	1.0	0.5456910133361816	Fixing_the_roof/v_Fixing_the_roof_id_a0dWpIiOexw_start_2.0_label_1.mp4
36.01343107223511	2.0010299682617188	126.0	-1.0	0.8018629550933838	Riding_bumper_cars/v_Riding_bumper_cars_id_QAkDJWU6MGQ_start_12.0_label_1.mp4
40.01327800750733	2.000416040420532	74.0	-1.0	0.4586079120635986	Knitting/v_Knitting_id_9PoagK33Xrc_start_83.0_label_1.mp4
44.01275992393494	2.0003790855407715	115.0	-1.0	0.7310969829559326	Pole_vault/v_Pole_vault_id_VYN6Z-vrDgQ_start_17.5_label_1.mp4
48.01289296150208	2.016288995742798	59.0	-1.0	0.3631150722503662	Hand_washing_clothes/v_Hand_washing_clothes_id_1crwK3JHvxs_start_61.0_label_1.mp4
52.01205611228943	2.017108917236328	7.0	-1.0	0.6191279888153076	Bathing_dog/v_Bathing_dog_id_ISBB1-iRVQE_start_62.0_label_1.mp4
60.01143288612366	2.000718116760254	148.0	-1.0	0.6203188896179199	Spread_mulch/v_Spread_mulch_id_jEzya8zXkmk_start_47.0_label_1.mp4
64.01108002662659	2.000001907348633	135.0	-1.0	0.5812399387359619	Shaving/v_Shaving_id_8-Nm32X5Kb0_start_58.5_label_1.mp4
68.01113605499268	2.0329818725585938	167.0	1.0	0.5082979202270508	Using_the_rowing_machine/v_Using_the_rowing_machine_id_amcjr8bqTqo_start_20.5_label_1.mp4
72.0104570388794	2.017096996307373	62.0	1.0	0.5807859897613525	High_jump/v_High_jump_id_AiliCxRgZAc_start_12.5_label_1.mp4
76.01016211509705	2.0169239044189453	9.0	1.0	0.6293449401855469	Beach_soccer/v_Beach_soccer_id_uqAFtPVzEEs_start_42.5_label_1.mp4
84.00952911376953	2.0338149070739746	140.0	1.0	0.6050570011138916	Skiing/v_Skiing_id_O-R-F3p7v54_start_20.5_label_1.mp4
88.00911092758179	2.0172390937805176	149.0	1.0	0.5742480754852295	Springboard_diving/v_Springboard_diving_id_-151cWqpxUA_start_2.5_label_1.mp4
92.00906109809875	2.017120838165283	38.0	1.0	0.6703579425811768	Doing_crunches/v_Doing_crunches_id_MMTmOJL1SBA_start_8.0_label_1.mp4
96.00862288475037	2.017029047012329	64.0	1.0	0.8067259788513184	Hopscotch/v_Hopscotch_id_bKQhcQQL3bA_start_173.0_label_1.mp4
100.00825595855711	2.050467014312744	168.0	1.0	1.0779409408569336	Using_uneven_bars/v_Using_uneven_bars_id_mwpPuGeN3-I_start_93.5_label_1.mp4
108.00758910179138	2.0004689693450928	8.0	1.0	0.8324730396270752	Baton_twirling/v_Baton_twirling_id_3ZyTmTwzZMs_start_9.0_label_1.mp4
112.00728702545166	2.017163038253784	80.0	-1.0	0.5681819915771484	Making_a_sandwich/v_Making_a_sandwich_id_Uu_teYsAXbE_start_50.0_label_1.mp4
116.0236918926239	2.0003042221069336	47.0	1.0	0.7285661697387695	Elliptical_trainer/v_Elliptical_trainer_id_JcC5Pj8KBvM_start_69.5_label_1.mp4
120.00680804252625	2.016983985900879	82.0	-1.0	0.6728410720825195	Mixing_drinks/v_Mixing_drinks_id_2IFyw0NxlAY_start_31.5_label_1.mp4
124.00656390190125	2.016822099685669	45.0	-1.0	0.6492080688476562	Drinking_coffee/v_Drinking_coffee_id_WaUS4MNKPnQ_start_8.5_label_1.mp4
132.02239799499512	2.000926971435547	164.0	1.0	0.4259271621704101	Using_the_balance_beam/v_Using_the_balance_beam_id_caeey77RMw4_start_70.0_label_1.mp4
136.02204990386963	2.000476121902466	37.0	1.0	0.6022839546203613	Dodgeball/v_Dodgeball_id_e0QjP1gC-TA_start_16.0_label_1.mp4
140.02177596092224	2.0004849433898926	44.0	1.0	0.7306299209594727	Doing_step_aerobics/v_Doing_step_aerobics_id_CibwlteUo78_start_55.0_label_1.mp4
144.02147102355957	2.0004379749298096	79.0	-1.0	0.7388958930969238	Making_a_lemonade/v_Making_a_lemonade_id_1a6f-agf8sQ_start_32.0_label_1.mp4
148.02115297317505	2.000136137008667	30.0	-1.0	0.7317061424255371	Cleaning_windows/v_Cleaning_windows_id_KE6EEyfA8-g_start_12.0_label_1.mp4
156.02047300338745	2.000418901443481	105.0	-1.0	0.4519829750061035	Playing_lacrosse/v_Playing_lacrosse_id_q0hd4k96BQs_start_6.0_label_1.mp4
160.02018904685974	2.000418901443481	54.0	-1.0	0.4763131141662597	Getting_a_tattoo/v_Getting_a_tattoo_id_HQgTNESfMew_start_84.5_label_1.mp4
164.0201120376587	1.99981689453125	179.0	-1.0	0.7650439739227295	Wrapping_presents/v_Wrapping_presents_id_iy-1ZjbeihU_start_4.0_label_1.mp4
168.01963210105896	2.000460863113404	13.0	-1.0	0.5809860229492188	Braiding_hair/v_Braiding_hair_id_GLqpeSJiPB8_start_35.5_label_1.mp4
172.01921010017395	2.000560998916626	22.0	1.0	0.7492010593414307	Canoeing/v_Canoeing_id_fiDJCTq5tKE_start_54.0_label_1.mp4
180.01860809326172	2.000386953353882	101.0	-1.0	0.5580251216888428	Playing_guitarra/v_Playing_guitarra_id_nvSROtpNKnE_start_97.5_label_1.mp4
184.01827597618103	2.00034499168396	11.0	-1.0	0.6143300533294678	Belly_dance/v_Belly_dance_id_3T9XNoL1GHs_start_99.0_label_1.mp4
188.01796889305115	2.0341200828552246	151.0	1.0	0.3812408447265625	Sumo/v_Sumo_id_XKvzx2cD9KY_start_127.5_label_1.mp4
192.0176019668579	2.000087022781372	117.0	-1.0	0.5993430614471436	Polishing_shoes/v_Polishing_shoes_id_Y4mkgrg5I-k_start_106.0_label_1.mp4
196.0173599720001	2.000633955001831	144.0	1.0	0.319314956665039	Snatch/v_Snatch_id_LcFIxARX6WQ_start_19.5_label_1.mp4
204.01672101020813	2.0012729167938232	163.0	1.0	0.2634928226470947	Using_parallel_bars/v_Using_parallel_bars_id_0y3VnY-VUD8_start_73.5_label_1.mp4
208.0164670944214	2.0005548000335693	73.0	1.0	0.336461067199707	Kneeling/v_Kneeling_id_JfyYgyjSkzY_start_16.5_label_1.mp4
212.01604795455933	2.000463962554932	43.0	-1.0	0.3047420978546142	Doing_nails/v_Doing_nails_id_XVOJ87tQlGg_start_81.0_label_1.mp4
216.0163860321045	2.033360004425049	19.0	1.0	0.3837301731109619	Bungee_jumping/v_Bungee_jumping_id_9YDKcwNrBz4_start_22.5_label_1.mp4
220.0157389640808	2.0001540184021	178.0	1.0	0.3374280929565429	Windsurfing/v_Windsurfing_id_N-rggPq942c_start_13.5_label_1.mp4
228.0148310661316	2.000532865524292	102.0	-1.0	0.3620588779449463	Playing_harmonica/v_Playing_harmonica_id_Jww6_ZhvcgE_start_93.5_label_1.mp4
232.01452088356007	2.000659227371216	63.0	-1.0	0.4504308700561523	Hitting_a_pinata/v_Hitting_a_pinata_id_9Y74cUcvHQw_start_56.0_label_1.mp4
236.0145959854126	1.9166901111602783	83.0	-1.0	0.4060649871826172	Mooping_floor/v_Mooping_floor_id_PwiJ5nygCFY_start_59.0_label_1.mp4
240.01387691497803	2.0338480472564697	84.0	-1.0	0.6337108612060547	Mowing_the_lawn/v_Mowing_the_lawn_id_POIFCRr32Sc_start_23.5_label_1.mp4
244.0135440826416	2.0337538719177246	106.0	-1.0	0.5541801452636719	Playing_piano/v_Playing_piano_id_ShVKTFS4CSs_start_90.0_label_1.mp4
252.01287007331848	2.0005970001220703	2.0	-1.0	0.3720870018005371	Arm_wrestling/v_Arm_wrestling_id_qQ3k6ekG9X0_start_59.0_label_1.mp4
256.01232290267944	2.0007691383361816	133.0	1.0	0.5404109954833984	Scuba_diving/v_Scuba_diving_id_b8ZeT5rCmMo_start_42.0_label_1.mp4
260.01230311393726	2.000572919845581	122.0	-1.0	0.4209091663360595	Putting_on_makeup/v_Putting_on_makeup_id_2zzK3HZDOuk_start_48.5_label_1.mp4
264.0124089717865	2.000972032546997	142.0	-1.0	0.6446101665496826	Smoking_a_cigarette/v_Smoking_a_cigarette_id_p05awXfWJBI_start_74.5_label_1.mp4
268.0116419792176	2.000910997390747	95.0	1.0	0.6292448043823242	Playing_beach_volleyball/v_Playing_beach_volleyball_id_jwOMZrAfYdI_start_9.5_label_1.mp4
276.0110719203949	1.9999191761016848	3.0	-1.0	0.3586421012878418	Assembling_bicycle/v_Assembling_bicycle_id_Dubk6yb1NCQ_start_106.5_label_1.mp4
280.01068210601807	2.01714301109314	92.0	-1.0	0.3419151306152344	Playing_accordion/v_Playing_accordion_id_0iFcPlwzAhc_start_53.5_label_1.mp4
284.01034808158875	2.0005438327789307	16.0	-1.0	0.527069091796875	Brushing_teeth/v_Brushing_teeth_id_B1-E1Jl85ic_start_8.5_label_1.mp4
288.0100688934326	2.017224073410034	108.0	-1.0	0.4145920276641845	Playing_pool/v_Playing_pool_id_LDgLwGtC7kg_start_16.0_label_1.mp4
292.00973105430603	2.000898838043213	169.0	-1.0	0.5354409217834473	Vacuuming_floor/v_Vacuuming_floor_id_Rk6qkd07qpM_start_8.0_label_1.mp4
