onset	duration	trial_type	response	response_time	stim_file
12.015357971191406	2.0670809745788574	101.0	n/a	n/a	Playing_guitarra/v_Playing_guitarra_id_WK2nhbblsf8_start_91.0_label_1.mp4
16.015028953552246	2.0005640983581543	152.0	1.0	0.0007789134979248	Surfing/v_Surfing_id_GpWDd4UFpDk_start_77.0_label_1.mp4
20.01480007171631	2.0005099773406982	51.0	1.0	0.0005569458007812	Futsal/v_Futsal_id_ZbuTOriD3ss_start_59.5_label_1.mp4
24.014396905899048	2.0004570484161377	57.0	1.0	0.0007247924804687	Hammer_throw/v_Hammer_throw_id_W7mcYclHfMI_start_3.5_label_1.mp4
28.01409387588501	2.000431060791016	2.0	1.0	0.2012290954589843	Arm_wrestling/v_Arm_wrestling_id_m1WUBNpGsZo_start_19.0_label_1.mp4
36.013437032699585	2.000488042831421	113.0	-1.0	0.0005440711975097	Playing_violin/v_Playing_violin_id_4_2j81MRpwQ_start_41.0_label_1.mp4
40.01305508613586	2.000728845596313	104.0	1.0	0.0004289150238037	Playing_kickball/v_Playing_kickball_id_UOMldYt_pX8_start_30.5_label_1.mp4
44.012791872024536	2.000478029251098	94.0	-1.0	0.0004899501800537	Playing_bagpipes/v_Playing_bagpipes_id_aHNpu0N1PCc_start_62.5_label_1.mp4
48.0124409198761	2.000648021697998	140.0	1.0	0.000525951385498	Skiing/v_Skiing_id_3KcpGbS233Q_start_141.0_label_1.mp4
52.01214790344238	2.0001461505889893	67.0	1.0	0.5477161407470703	Hurling/v_Hurling_id_txdQr4ZE9Zc_start_6.0_label_1.mp4
60.01149392127991	2.000620126724243	129.0	1.0	0.0006740093231201	Rollerblading/v_Rollerblading_id_4TsQhW2a0jE_start_7.5_label_1.mp4
64.01124691963196	1.999803066253662	49.0	-1.0	0.2847709655761719	Fixing_the_roof/v_Fixing_the_roof_id_fio7NfQITBM_start_113.5_label_1.mp4
68.01087498664856	2.033886909484864	148.0	-1.0	0.3314220905303955	Spread_mulch/v_Spread_mulch_id_kCyrHG8W9fs_start_85.0_label_1.mp4
72.01053190231323	2.000775098800659	111.0	-1.0	0.0005450248718261	Playing_saxophone/v_Playing_saxophone_id_EdUXMn6k3vo_start_79.0_label_1.mp4
76.01019191741943	2.0170769691467285	22.0	1.0	0.212723970413208	Canoeing/v_Canoeing_id_umGfiv9aXco_start_12.5_label_1.mp4
84.00957989692688	2.0005321502685547	169.0	-1.0	0.0006530284881591	Vacuuming_floor/v_Vacuuming_floor_id_bFZNVwm0wZk_start_22.5_label_1.mp4
88.00926399230957	2.017155885696411	70.0	1.0	0.0005829334259033	Javelin_throw/v_Javelin_throw_id_XxJ7Yd7yDRA_start_3.5_label_1.mp4
92.00893092155457	2.017238140106201	37.0	1.0	0.0005500316619873	Dodgeball/v_Dodgeball_id_w3TvUZ0RWN0_start_50.5_label_1.mp4
96.00870609283449	2.05029296875	32.0	1.0	0.0005040168762207	Croquet/v_Croquet_id_8PnL_DOc758_start_30.0_label_1.mp4
100.0083680152893	2.0170130729675293	77.0	1.0	0.0005531311035156	Longboarding/v_Longboarding_id_RJkMdp5ZV8E_start_147.0_label_1.mp4
108.00783610343932	1.9998869895935056	156.0	1.0	0.0005760192871093	Tai_chi/v_Tai_chi_id_lJM_oM7HDO0_start_47.0_label_1.mp4
112.00693607330322	2.050720930099488	172.0	-1.0	0.1505098342895507	Walking_the_dog/v_Walking_the_dog_id_XgNMnQFBQaE_start_30.0_label_1.mp4
116.00702691078186	2.050286054611206	52.0	-1.0	0.0004899501800537	Getting_a_haircut/v_Getting_a_haircut_id_2SqHjqJqVJs_start_56.5_label_1.mp4
120.02339005470276	2.0004589557647705	154.0	-1.0	0.0005459785461425	Swinging_at_the_playground/v_Swinging_at_the_playground_id_kesnehl1V1c_start_120.0_label_1.mp4
124.02309894561768	2.0000109672546387	145.0	n/a	n/a	Snow_tubing/v_Snow_tubing_id_jyNlwUNbVK8_start_4.0_label_1.mp4
132.02238297462463	1.983613967895508	75.0	-1.0	0.6666622161865234	Laying_tile/v_Laying_tile_id_wf7sYzy6C1M_start_32.5_label_1.mp4
136.02212691307068	2.000434160232544	40.0	1.0	0.0005609989166259	Doing_karate/v_Doing_karate_id_KrNKXZxWgho_start_17.0_label_1.mp4
140.02176189422607	2.0004940032958984	147.0	1.0	0.000558853149414	Spinning/v_Spinning_id_7BcBK2GcjGc_start_39.5_label_1.mp4
144.021497964859	2.0003890991210938	99.0	1.0	0.0005321502685546	Playing_field_hockey/v_Playing_field_hockey_id_FzJH6SD2Tfs_start_40.0_label_1.mp4
148.02117705345154	2.000437021255493	1.0	1.0	0.0006129741668701	Archery/v_Archery_id_vua2-PCYsEY_start_94.0_label_1.mp4
156.02052903175354	2.000607967376709	12.0	-1.0	0.0005779266357421	Blow-drying_hair/v_Blow-drying_hair_id_ZXnn755C9AM_start_69.5_label_1.mp4
160.02022409439087	2.033735990524292	88.0	-1.0	0.0004999637603759	Painting_furniture/v_Painting_furniture_id_o3VADKuIneg_start_30.0_label_1.mp4
164.0204620361328	2.033166885375977	8.0	1.0	0.0006330013275146	Baton_twirling/v_Baton_twirling_id_X2xQOidJ4xM_start_54.0_label_1.mp4
168.01960802078247	2.000447988510132	136.0	n/a	n/a	Shot_put/v_Shot_put_id_6P-BW85y5Gc_start_1.0_label_1.mp4
172.01926589012146	2.0005991458892822	130.0	1.0	0.0007438659667968	Rope_skipping/v_Rope_skipping_id_YAPucHDlu2I_start_6.0_label_1.mp4
180.0186140537262	2.0003409385681152	167.0	1.0	0.0005249977111816	Using_the_rowing_machine/v_Using_the_rowing_machine_id_eifY17JjZIU_start_13.5_label_1.mp4
184.0190019607544	1.999640941619873	81.0	-1.0	0.0005409717559814	Making_an_omelette/v_Making_an_omelette_id_FamY0Bs6PhQ_start_73.0_label_1.mp4
188.01801705360413	2.0005910396575928	150.0	-1.0	0.0006179809570312	Starting_a_campfire/v_Starting_a_campfire_id_P620i815viQ_start_6.5_label_1.mp4
192.01771593093872	2.00055193901062	90.0	-1.0	0.0006051063537597	Plastering/v_Plastering_id_uOoG2rdc-Mw_start_44.5_label_1.mp4
196.0173709392548	2.0004451274871826	107.0	1.0	0.0005598068237304	Playing_polo/v_Playing_polo_id_QdvC8Xt-ym0_start_30.5_label_1.mp4
204.01676893234253	2.000401020050049	165.0	1.0	0.0007281303405761	Using_the_monkey_bar/v_Using_the_monkey_bar_id_JVFTdhYeM_o_start_43.5_label_1.mp4
208.01646900177	2.0011649131774902	34.0	-1.0	0.0006489753723144	Decorating_the_Christmas_tree/v_Decorating_the_Christmas_tree_id_XjKUQzWI7n4_start_21.5_label_1.mp4
212.0161030292511	2.00114107131958	15.0	-1.0	0.239866018295288	Brushing_hair/v_Brushing_hair_id_aiLiSaJtONQ_start_46.5_label_1.mp4
216.015774011612	2.000618934631348	105.0	1.0	0.0004899501800537	Playing_lacrosse/v_Playing_lacrosse_id_MbIwgB8ifq4_start_32.0_label_1.mp4
220.01547288894653	2.000660181045532	102.0	-1.0	0.0005290508270263	Playing_harmonica/v_Playing_harmonica_id_mmJroQr6lMI_start_117.0_label_1.mp4
228.0147869586945	2.000508069992065	98.0	-1.0	0.0005688667297363	Playing_drums/v_Playing_drums_id_HNoj5HKwtmc_start_118.0_label_1.mp4
232.01453804969788	2.000607967376709	13.0	-1.0	0.0006659030914306	Braiding_hair/v_Braiding_hair_id_UavdtMyGwtY_start_77.0_label_1.mp4
236.014142036438	2.000570058822632	114.0	1.0	0.000694990158081	Playing_water_polo/v_Playing_water_polo_id_N2vAS2SYjRg_start_20.5_label_1.mp4
240.01397609710693	2.0005009174346924	164.0	1.0	0.5625760555267334	Using_the_balance_beam/v_Using_the_balance_beam_id_o79vLIyWc7k_start_46.5_label_1.mp4
244.01355409622192	2.00044584274292	16.0	-1.0	0.0004849433898925	Brushing_teeth/v_Brushing_teeth_id_aTcgisqWKRM_start_2.0_label_1.mp4
252.01291704177856	2.000318050384521	28.0	-1.0	0.0006110668182373	Cleaning_shoes/v_Cleaning_shoes_id_XlK_J99wqmA_start_74.0_label_1.mp4
256.0126299858093	2.000704050064087	125.0	-1.0	0.00071382522583	Raking_leaves/v_Raking_leaves_id_CErVtfN1S6Q_start_101.5_label_1.mp4
260.0122990608216	2.0004630088806152	17.0	-1.0	0.0006818771362304	Building_sandcastles/v_Building_sandcastles_id_wX_y4Zo5bOY_start_36.5_label_1.mp4
264.012001991272	2.000333070755005	163.0	1.0	0.0004858970642089	Using_parallel_bars/v_Using_parallel_bars_id_gGKq91w8CQA_start_15.5_label_1.mp4
268.0116739273072	2.000446081161499	84.0	-1.0	0.0006308555603027	Mowing_the_lawn/v_Mowing_the_lawn_id_jUMp8wqoSz0_start_145.0_label_1.mp4
276.0110170841217	2.0005428791046143	168.0	1.0	0.0006389617919921	Using_uneven_bars/v_Using_uneven_bars_id_P_e4BlO947E_start_8.0_label_1.mp4
280.01075291633606	2.0004940032958984	93.0	1.0	0.0006690025329589	Playing_badminton/v_Playing_badminton_id_0MAFeuu0MMU_start_56.0_label_1.mp4
284.0103769302368	2.0010581016540527	4.0	1.0	0.0006520748138427	BMX/v_BMX_id_E4x8NNhtngc_start_48.5_label_1.mp4
288.0100650787353	2.000219821929932	137.0	-1.0	0.0007131099700927	Shoveling_snow/v_Shoveling_snow_id_nk_Ml5TtKs0_start_51.0_label_1.mp4
292.00981307029724	2.0005128383636475	78.0	-1.0	0.2715470790863037	Making_a_cake/v_Making_a_cake_id_0oRv537diok_start_65.0_label_1.mp4
