onset	duration	trial_type	response	response_time	stim_file
12.015316009521484	2.0670390129089355	60.0	-1.0	0.0005650520324707	Hanging_wallpaper/v_Hanging_wallpaper_id_42xVLWgSKOc_start_64.5_label_1.mp4
16.01506495475769	2.000838041305542	157.0	-1.0	0.0006189346313476	Tango/v_Tango_id_3ahF-YrsxuU_start_10.0_label_1.mp4
20.014813899993896	2.0005831718444824	144.0	1.0	0.0006928443908691	Snatch/v_Snatch_id_y6i0EwnofHs_start_9.5_label_1.mp4
24.01451587677002	2.00045108795166	151.0	1.0	0.000626802444458	Sumo/v_Sumo_id_dMSg6wBvn5g_start_9.0_label_1.mp4
28.01409888267517	2.0006160736083984	134.0	-1.0	0.4298229217529297	Sharpening_knives/v_Sharpening_knives_id_emplZ1kgr2U_start_70.0_label_1.mp4
36.01344704627991	2.0004420280456543	173.0	-1.0	0.0004830360412597	Washing_dishes/v_Washing_dishes_id_xQ4SWF81JBQ_start_2.0_label_1.mp4
40.013179063797	2.000553846359253	21.0	-1.0	0.8468179702758789	Camel_ride/v_Camel_ride_id_MzdAiSw2uAk_start_11.5_label_1.mp4
44.013115882873535	2.000517129898072	47.0	1.0	0.000547170639038	Elliptical_trainer/v_Elliptical_trainer_id_6VwpYQnpotY_start_26.0_label_1.mp4
48.01255488395691	2.000425100326538	66.0	1.0	0.0006968975067138	Hula_hoop/v_Hula_hoop_id_HDo9-wxn7Yc_start_142.5_label_1.mp4
52.01217293739319	2.000537157058716	109.0	1.0	4.983826160430908	Playing_racquetball/v_Playing_racquetball_id_Jb2DcI_D9yE_start_1.5_label_1.mp4
60.01158094406128	2.0006890296936035	166.0	1.0	0.0005469322204589	Using_the_pommel_horse/v_Using_the_pommel_horse_id_0nrAzq049BA_start_8.0_label_1.mp4
64.01126289367676	2.03324818611145	48.0	-1.0	0.4320051670074463	Fixing_bicycle/v_Fixing_bicycle_id_zWe6Zbaz1uM_start_90.0_label_1.mp4
68.01096796989441	2.01711106300354	44.0	1.0	0.0005278587341308	Doing_step_aerobics/v_Doing_step_aerobics_id_kQOoA4xs-Zc_start_79.0_label_1.mp4
72.01060390472412	2.000624179840088	54.0	n/a	n/a	Getting_a_tattoo/v_Getting_a_tattoo_id_kH7ihI8-3HI_start_50.0_label_1.mp4
76.01032495498657	2.0002670288085938	112.0	1.0	0.0006759166717529	Playing_squash/v_Playing_squash_id_RYdy4FuWF04_start_1.0_label_1.mp4
84.00966000556946	2.000593900680542	69.0	-1.0	0.418503999710083	Ironing_clothes/v_Ironing_clothes_id_RsFLLv5f9vQ_start_79.5_label_1.mp4
88.00933599472046	2.0002329349517822	142.0	n/a	n/a	Smoking_a_cigarette/v_Smoking_a_cigarette_id_r4svHRS1Xlw_start_183.5_label_1.mp4
92.00904297828674	2.050431966781616	119.0	-1.0	0.0005099773406982	Preparing_pasta/v_Preparing_pasta_id_VI60fRXHFSw_start_60.0_label_1.mp4
96.00875806808472	2.0170578956604004	97.0	-1.0	0.0004820823669433	Playing_congas/v_Playing_congas_id_mLd9g8V_-TU_start_72.5_label_1.mp4
100.00838899612428	2.017219066619873	141.0	1.0	0.0005550384521484	Slacklining/v_Slacklining_id_g1N-8wW-lMc_start_40.5_label_1.mp4
108.02441692352296	1.9840030670166016	138.0	1.0	0.5006139278411865	Shuffleboard/v_Shuffleboard_id_zzxYEZkahBU_start_46.5_label_1.mp4
112.00746202468872	2.0504000186920166	5.0	-1.0	0.0005419254302978	Baking_cookies/v_Baking_cookies_id_TEJLY-2zeRM_start_28.0_label_1.mp4
116.02379894256592	2.000498056411743	79.0	-1.0	0.0006101131439208	Making_a_lemonade/v_Making_a_lemonade_id__GukJ19kfg4_start_39.5_label_1.mp4
120.02346587181091	2.000413179397583	176.0	n/a	n/a	Waxing_skis/v_Waxing_skis_id_GlsLlIawInQ_start_68.0_label_1.mp4
124.0064799785614	2.017177104949951	179.0	-1.0	0.1013510227203369	Wrapping_presents/v_Wrapping_presents_id_l3k1ZSuApxQ_start_17.0_label_1.mp4
132.02252507209778	2.000432014465332	42.0	1.0	0.0004160404205322	Doing_motocross/v_Doing_motocross_id_F-h3_h_8rh4_start_48.0_label_1.mp4
136.02215790748596	2.0337841510772705	29.0	n/a	n/a	Cleaning_sink/v_Cleaning_sink_id_hKn92s9R6xY_start_33.0_label_1.mp4
140.02187490463257	2.000395059585572	123.0	-1.0	0.0007381439208984	Putting_on_shoes/v_Putting_on_shoes_id_groAnepbJBA_start_7.5_label_1.mp4
144.02152705192566	2.0006089210510254	43.0	n/a	n/a	Doing_nails/v_Doing_nails_id_14BWW-6OwrI_start_71.5_label_1.mp4
148.02120089530945	2.0338051319122314	139.0	1.0	0.0005910396575927	Skateboarding/v_Skateboarding_id_Ch2Y2ByQSeI_start_17.0_label_1.mp4
156.02057600021362	2.0004570484161377	175.0	-1.0	0.0005490779876708	Waterskiing/v_Waterskiing_id_ez9oSTEQ9_Y_start_10.5_label_1.mp4
160.02027988433838	2.033607006072998	68.0	n/a	n/a	Ice_fishing/v_Ice_fishing_id_-EQiyL9rC9U_start_31.0_label_1.mp4
164.01995205879211	2.000452995300293	80.0	n/a	n/a	Making_a_sandwich/v_Making_a_sandwich_id_0G1o5gtLKcQ_start_33.0_label_1.mp4
168.01962995529175	2.0004470348358154	126.0	1.0	0.0006031990051269	Riding_bumper_cars/v_Riding_bumper_cars_id_wEGUAk2wkmY_start_31.5_label_1.mp4
172.01931309700012	2.000409841537476	61.0	-1.0	0.000572919845581	Having_an_ice_cream/v_Having_an_ice_cream_id_76ifKsMNH1M_start_9.5_label_1.mp4
180.01868605613708	2.0005359649658203	72.0	n/a	n/a	Kite_flying/v_Kite_flying_id_ds6Ra7OF68g_start_5.0_label_1.mp4
184.01839590072632	2.000447988510132	122.0	-1.0	0.0005810260772705	Putting_on_makeup/v_Putting_on_makeup_id_cR6yLegqSIw_start_115.5_label_1.mp4
188.01804304122925	2.000417947769165	59.0	-1.0	0.0005879402160644	Hand_washing_clothes/v_Hand_washing_clothes_id__k8JXQ9NVwU_start_43.5_label_1.mp4
192.0177090168	2.0005650520324707	95.0	1.0	0.0005428791046142	Playing_beach_volleyball/v_Playing_beach_volleyball_id_PReZNNgc6dI_start_2.0_label_1.mp4
196.01737689971924	2.0004751682281494	33.0	n/a	n/a	Cutting_the_grass/v_Cutting_the_grass_id_EDdqeeNPVpQ_start_25.0_label_1.mp4
204.01675295829773	2.0004961490631104	149.0	1.0	0.1962320804595947	Springboard_diving/v_Springboard_diving_id_zm7xHWsu10I_start_16.0_label_1.mp4
208.0164608955384	2.000581979751587	155.0	-1.0	0.0006430149078369	Table_soccer/v_Table_soccer_id_PEqsAGZlwnU_start_2.0_label_1.mp4
212.0161519050598	2.00045108795166	58.0	n/a	n/a	Hand_car_wash/v_Hand_car_wash_id_Kx32oAdunM8_start_6.5_label_1.mp4
216.0158350467682	2.000675916671753	24.0	-1.0	0.0005779266357421	Carving_jack-o-lanterns/v_Carving_jack-o-lanterns_id_n1DxjdkWRPE_start_61.5_label_1.mp4
220.01554894447327	2.0004870891571045	14.0	1.0	0.0005509853363037	Breakdancing/v_Breakdancing_id_8jcCcdeka8g_start_8.0_label_1.mp4
228.0148799419403	2.0338070392608643	162.0	1.0	0.0005438327789306	Tumbling/v_Tumbling_id_RLiAUZpt0Tg_start_89.0_label_1.mp4
232.0145618915558	2.017273187637329	87.0	-1.0	0.0005209445953369	Painting_fence/v_Painting_fence_id_99ZnB6_3HXQ_start_104.0_label_1.mp4
236.0142560005188	2.000304937362671	170.0	1.0	0.0005660057067871	Volleyball/v_Volleyball_id_MlAvE1HstK8_start_27.0_label_1.mp4
240.01391887664795	2.0005362033843994	171.0	1.0	0.0005190372467041	Wakeboarding/v_Wakeboarding_id_ikG9y_z9lzA_start_73.5_label_1.mp4
244.01359391212463	2.0007200241088867	20.0	n/a	n/a	Calf_roping/v_Calf_roping_id_lmfGc3L7LCE_start_19.0_label_1.mp4
252.01301407814023	2.000427961349488	124.0	1.0	0.0008189678192138	Rafting/v_Rafting_id_6uQL_wonuhM_start_22.0_label_1.mp4
256.01266288757324	2.03430700302124	116.0	n/a	n/a	Polishing_forniture/v_Polishing_forniture_id_tbBI2945GEU_start_52.5_label_1.mp4
260.0123679637909	2.0006871223449707	86.0	n/a	n/a	Painting/v_Painting_id_7tAPQ15kkig_start_64.5_label_1.mp4
264.012088060379	2.0006349086761475	100.0	-1.0	0.0006470680236816	Playing_flauta/v_Playing_flauta_id_1aFNn73ny_w_start_61.5_label_1.mp4
268.01175689697266	2.0007381439208984	85.0	-1.0	0.0004618167877197	Paintball/v_Paintball_id_npbbxsJE-pY_start_69.0_label_1.mp4
276.0110809803009	2.034205913543701	27.0	1.0	0.0006039142608642	Clean_and_jerk/v_Clean_and_jerk_id_NEUvbJyXkjc_start_17.0_label_1.mp4
280.0108609199524	2.0331931114196777	53.0	-1.0	0.0006220340728759	Getting_a_piercing/v_Getting_a_piercing_id_OCTyKnjpsb8_start_132.5_label_1.mp4
284.01044487953186	2.0007970333099365	55.0	-1.0	0.6349561214447021	Grooming_dog/v_Grooming_dog_id_-w3KSGlo1uY_start_39.5_label_1.mp4
288.0101768970489	2.017174005508423	35.0	n/a	n/a	Disc_dog/v_Disc_dog_id_KN0KmLy9_-g_start_72.0_label_1.mp4
292.00984287261963	2.0004892349243164	6.0	1.0	0.000450849533081	Ballet/v_Ballet_id_vaEk2s7cXmk_start_5.5_label_1.mp4
