onset	duration	trial_type	response	response_time	stim_file
12.015352010726929	2.067326068878174	123.0	-1.0	0.0005290508270263	Putting_on_shoes/v_Putting_on_shoes_id_J_i0QNbqO00_start_4.0_label_1.mp4
16.015076160430908	2.000356912612915	47.0	1.0	0.0005769729614257	Elliptical_trainer/v_Elliptical_trainer_id_Kk9o3fifAsw_start_48.0_label_1.mp4
20.01467704772949	2.0332350730896	27.0	1.0	0.0005378723144531	Clean_and_jerk/v_Clean_and_jerk_id_GysDDYkdigg_start_10.5_label_1.mp4
24.01432514190674	2.000418901443481	67.0	1.0	0.0004670619964599	Hurling/v_Hurling_id_o2n__lsbCs0_start_10.0_label_1.mp4
28.01408100128174	2.0012190341949463	168.0	n/a	n/a	Using_uneven_bars/v_Using_uneven_bars_id_KhiX3ttPFR8_start_14.5_label_1.mp4
36.01371502876282	2.000273942947388	82.0	n/a	n/a	Mixing_drinks/v_Mixing_drinks_id_sxSuzkwiRmU_start_47.0_label_1.mp4
40.013062953948975	2.0001142024993896	157.0	1.0	0.0005438327789306	Tango/v_Tango_id_Oc8mDJPaM4c_start_42.0_label_1.mp4
44.01277995109558	2.001211166381836	76.0	1.0	0.0006489753723144	Long_jump/v_Long_jump_id_IzML8vNVYY0_start_15.5_label_1.mp4
48.012402057647705	2.00063705444336	174.0	n/a	n/a	Washing_hands/v_Washing_hands_id_XGrdU-K8TXM_start_37.5_label_1.mp4
52.01209115982056	1.999866962432861	137.0	-1.0	0.0005998611450195	Shoveling_snow/v_Shoveling_snow_id_jK7ETKdP0W8_start_11.0_label_1.mp4
60.01147103309631	2.000683069229126	170.0	1.0	0.0005838871002197	Volleyball/v_Volleyball_id_PO5iIRQgFKU_start_10.0_label_1.mp4
64.01111912727356	2.000485897064209	163.0	1.0	0.0006499290466308	Using_parallel_bars/v_Using_parallel_bars_id_nSBQtLL_Gs8_start_14.0_label_1.mp4
68.010822057724	2.0006039142608643	70.0	1.0	0.0006399154663085	Javelin_throw/v_Javelin_throw_id_vOI47FNMRIs_start_20.5_label_1.mp4
72.0104751586914	2.000077962875366	100.0	-1.0	0.0005240440368652	Playing_flauta/v_Playing_flauta_id_FpcaGQFVl68_start_76.5_label_1.mp4
76.01023697853088	1.9999260902404783	135.0	-1.0	0.6985518932342529	Shaving/v_Shaving_id_dReGb6Z6uSs_start_41.0_label_1.mp4
84.00960397720337	2.000326156616211	153.0	n/a	n/a	Swimming/v_Swimming_id_kFmOtf_Ew1w_start_11.0_label_1.mp4
88.00919198989868	1.999989032745361	83.0	-1.0	0.0005619525909423	Mooping_floor/v_Mooping_floor_id__ElOFRFmVjM_start_14.0_label_1.mp4
92.02557110786438	2.000431060791016	133.0	n/a	n/a	Scuba_diving/v_Scuba_diving_id_teT4fmu-MZY_start_118.5_label_1.mp4
96.00857996940611	2.050453186035156	48.0	-1.0	0.3377211093902588	Fixing_bicycle/v_Fixing_bicycle_id_o9oA_D394I0_start_28.0_label_1.mp4
100.00828909873962	2.016814947128296	2.0	1.0	0.000446081161499	Arm_wrestling/v_Arm_wrestling_id_oObjkc3O1Z8_start_10.0_label_1.mp4
108.00789308547974	2.0002260208129883	58.0	-1.0	0.2606921195983886	Hand_car_wash/v_Hand_car_wash_id_9sLKcd6cEHA_start_36.0_label_1.mp4
112.00733709335329	2.017077922821045	60.0	-1.0	0.1804299354553222	Hanging_wallpaper/v_Hanging_wallpaper_id_CkPsJpzOCTA_start_7.0_label_1.mp4
116.00702214241028	2.0169899463653564	129.0	1.0	0.2527010440826416	Rollerblading/v_Rollerblading_id_gY40QgabDsA_start_116.0_label_1.mp4
120.00620102882384	2.017580986022949	90.0	n/a	n/a	Plastering/v_Plastering_id_q5V2lzN_GZU_start_85.5_label_1.mp4
124.00670099258424	2.016632080078125	115.0	n/a	n/a	Pole_vault/v_Pole_vault_id_Q7Bi2FGdcow_start_4.5_label_1.mp4
132.02240204811096	2.000464916229248	176.0	-1.0	0.0005819797515869	Waxing_skis/v_Waxing_skis_id_2jjMVAGUo38_start_143.0_label_1.mp4
136.0221071243286	2.00032901763916	160.0	1.0	0.0005040168762207	Triple_jump/v_Triple_jump_id_ZgIVUhnLDPE_start_4.5_label_1.mp4
140.02183508872986	2.000324010848999	136.0	1.0	0.0004880428314208	Shot_put/v_Shot_put_id_PJx6GXfApeY_start_5.0_label_1.mp4
144.0217821598053	1.9999988079071045	125.0	1.0	0.0005810260772705	Raking_leaves/v_Raking_leaves_id_FS5wWjC-qsw_start_150.5_label_1.mp4
148.02116298675537	2.000554084777832	154.0	-1.0	0.0006599426269531	Swinging_at_the_playground/v_Swinging_at_the_playground_id_DnV_IMaDckE_start_40.5_label_1.mp4
156.0205340385437	2.0005640983581543	77.0	n/a	n/a	Longboarding/v_Longboarding_id_SCyLvRX3fxE_start_32.0_label_1.mp4
160.02023816108704	2.000393867492676	113.0	-1.0	0.0005998611450195	Playing_violin/v_Playing_violin_id_rs5kLfRJ0A4_start_2.0_label_1.mp4
164.01988196372986	2.000473022460937	79.0	-1.0	0.0005872249603271	Making_a_lemonade/v_Making_a_lemonade_id_S5MeBVMH0pQ_start_35.0_label_1.mp4
168.01959109306335	2.0002670288085938	75.0	-1.0	0.0005669593811035	Laying_tile/v_Laying_tile_id_B5V1rD0eFPg_start_18.0_label_1.mp4
172.01926112174988	2.0002119541168213	117.0	-1.0	0.0007572174072265	Polishing_shoes/v_Polishing_shoes_id_LFCVMnDwmcI_start_144.0_label_1.mp4
180.01862215995789	2.0004258155822754	4.0	1.0	0.0005600452423095	BMX/v_BMX_id_FeG7bj3qZOA_start_27.0_label_1.mp4
184.018324136734	2.0006818771362305	109.0	-1.0	0.0004370212554931	Playing_racquetball/v_Playing_racquetball_id_XF8be-Lp-fA_start_7.0_label_1.mp4
188.0181701183319	2.0001468658447266	162.0	1.0	0.0004739761352539	Tumbling/v_Tumbling_id_qz3lJNi8qg0_start_4.0_label_1.mp4
192.017657995224	2.000516176223755	158.0	1.0	0.0005669593811035	Throwing_darts/v_Throwing_darts_id_eOXVv5CgQWQ_start_15.5_label_1.mp4
196.0173909664154	2.000441074371338	38.0	1.0	0.0004498958587646	Doing_crunches/v_Doing_crunches_id_79mRoHMwBaM_start_61.5_label_1.mp4
204.0168030261993	2.0004539489746094	46.0	n/a	n/a	Drum_corps/v_Drum_corps_id_J7ZkXr84ITI_start_2.0_label_1.mp4
208.0164289474488	2.034021139144897	111.0	-1.0	0.0005359649658203	Playing_saxophone/v_Playing_saxophone_id_TDO1O80zt0s_start_65.5_label_1.mp4
212.0161399841309	2.000415086746216	150.0	-1.0	0.0006680488586425	Starting_a_campfire/v_Starting_a_campfire_id_SVwzyOTFb_o_start_48.0_label_1.mp4
216.01562404632568	2.0005340576171875	42.0	n/a	n/a	Doing_motocross/v_Doing_motocross_id_kKHGY0U3bGM_start_97.5_label_1.mp4
220.01546812057487	2.0003368854522705	30.0	n/a	n/a	Cleaning_windows/v_Cleaning_windows_id_69-HrOgvyFw_start_187.5_label_1.mp4
228.01485013961792	2.0000178813934326	62.0	1.0	0.0008041858673095	High_jump/v_High_jump_id_crvR-cm5IbE_start_127.5_label_1.mp4
232.0144851207733	2.0005810260772705	57.0	1.0	0.0005979537963867	Hammer_throw/v_Hammer_throw_id_j7yyeik29Kk_start_18.0_label_1.mp4
236.01425695419312	2.000568151473999	53.0	n/a	n/a	Getting_a_piercing/v_Getting_a_piercing_id_t64u9xNrYS4_start_41.0_label_1.mp4
240.01390600204468	2.00026798248291	164.0	-1.0	0.7273209095001221	Using_the_balance_beam/v_Using_the_balance_beam_id_2nVKiB4FXAk_start_120.5_label_1.mp4
244.01369404792783	2.0004630088806152	172.0	n/a	n/a	Walking_the_dog/v_Walking_the_dog_id_x5eJSBbZAsM_start_8.0_label_1.mp4
252.0129930973053	2.000349998474121	179.0	n/a	n/a	Wrapping_presents/v_Wrapping_presents_id_Wz98adApiJA_start_11.5_label_1.mp4
256.012619972229	2.000998020172119	14.0	1.0	0.0011098384857177	Breakdancing/v_Breakdancing_id_tDuGSf3Z9yg_start_44.0_label_1.mp4
260.0120301246643	2.0007359981536865	169.0	-1.0	0.0005838871002197	Vacuuming_floor/v_Vacuuming_floor_id_NEdOiPxHVPc_start_23.0_label_1.mp4
264.0119969844818	2.033334970474243	119.0	-1.0	0.0006680488586425	Preparing_pasta/v_Preparing_pasta_id_55irDTDbOks_start_89.0_label_1.mp4
268.01165294647217	2.000620126724243	120.0	-1.0	0.0006999969482421	Preparing_salad/v_Preparing_salad_id_6bDvYvHFoPo_start_195.0_label_1.mp4
276.01106214523315	2.0340259075164795	96.0	-1.0	0.0005350112915039	Playing_blackjack/v_Playing_blackjack_id_iNDQvB0W4Qk_start_18.0_label_1.mp4
280.0107190608978	2.0504910945892334	28.0	n/a	n/a	Cleaning_shoes/v_Cleaning_shoes_id_hxOih4uakBc_start_18.0_label_1.mp4
284.0104341506958	2.000865936279297	34.0	n/a	n/a	Decorating_the_Christmas_tree/v_Decorating_the_Christmas_tree_id_scrJwGGTS-w_start_66.0_label_1.mp4
288.0101001262665	2.017051935195923	31.0	1.0	0.0005421638488769	Cricket/v_Cricket_id_2Tqrbv4KDqA_start_2.0_label_1.mp4
292.0097539424896	2.0505192279815674	36.0	1.0	0.4257700443267822	Discus_throw/v_Discus_throw_id_cpFsabeemUE_start_9.0_label_1.mp4
