onset	duration	trial_type	response	response_time	stim_file
12.015060901641846	2.067063093185425	113.0	-1.0	0.3716268539428711	Playing_violin/v_Playing_violin_id_HzF5YsRBxi4_start_79.0_label_1.mp4
16.014744997024536	2.033831834793091	41.0	n/a	n/a	Doing_kickboxing/v_Doing_kickboxing_id_4P5VqsEim9U_start_57.0_label_1.mp4
20.014729976654053	2.033679962158203	122.0	-1.0	0.4215281009674072	Putting_on_makeup/v_Putting_on_makeup_id_G6wr8DZXnPc_start_26.5_label_1.mp4
24.0140118598938	2.0004210472106934	12.0	-1.0	0.4553210735321045	Blow-drying_hair/v_Blow-drying_hair_id_dNmIRnZxlao_start_30.5_label_1.mp4
28.013667821884155	2.000458002090454	103.0	n/a	n/a	Playing_ice_hockey/v_Playing_ice_hockey_id_e6p54xCYmFE_start_6.5_label_1.mp4
36.012994050979614	2.000448942184448	38.0	1.0	0.4403500556945801	Doing_crunches/v_Doing_crunches_id_JBpXDC69Xqg_start_21.0_label_1.mp4
40.012645959854126	2.0004770755767822	166.0	1.0	0.74446702003479	Using_the_pommel_horse/v_Using_the_pommel_horse_id__1rLkiLDYwQ_start_9.5_label_1.mp4
44.01230001449585	2.000427961349488	160.0	n/a	n/a	Triple_jump/v_Triple_jump_id_aOjKCyHP7_k_start_11.5_label_1.mp4
48.012048959732056	2.000591993331909	45.0	n/a	n/a	Drinking_coffee/v_Drinking_coffee_id_aAqtAvCF7fM_start_11.0_label_1.mp4
52.011656045913696	2.0005979537963867	134.0	n/a	n/a	Sharpening_knives/v_Sharpening_knives_id_ZHxJ2Uc4Peo_start_119.0_label_1.mp4
60.01090598106384	2.000427961349488	79.0	-1.0	0.6424119472503662	Making_a_lemonade/v_Making_a_lemonade_id_PNhiAZLmP94_start_44.5_label_1.mp4
64.01056098937988	2.0006918907165527	121.0	-1.0	0.6504318714141846	Putting_in_contact_lenses/v_Putting_in_contact_lenses_id_y37rX0Y7XL8_start_14.5_label_1.mp4
68.01023888587952	2.0000360012054443	42.0	n/a	n/a	Doing_motocross/v_Doing_motocross_id_e3aroUs3Cj4_start_45.5_label_1.mp4
72.00990104675293	2.017068862915039	27.0	n/a	n/a	Clean_and_jerk/v_Clean_and_jerk_id_KRiYG_WalAo_start_3.5_label_1.mp4
76.00960183143616	2.0170271396636963	55.0	n/a	n/a	Grooming_dog/v_Grooming_dog_id_dh2SUC5l_iA_start_9.5_label_1.mp4
84.00888800621033	2.000464916229248	7.0	n/a	n/a	Bathing_dog/v_Bathing_dog_id_5wamcAMByD8_start_29.0_label_1.mp4
88.00853300094604	2.017072916030884	87.0	n/a	n/a	Painting_fence/v_Painting_fence_id_Q1zz9W4GnEc_start_82.5_label_1.mp4
92.00798797607422	2.0171899795532227	88.0	-1.0	0.6924581527709961	Painting_furniture/v_Painting_furniture_id__DgU4MifxjM_start_36.0_label_1.mp4
96.00785088539124	2.017064094543457	110.0	n/a	n/a	Playing_rubik_cube/v_Playing_rubik_cube_id_9hiU-UBlst0_start_20.5_label_1.mp4
100.00750303268433	2.01714301109314	130.0	n/a	n/a	Rope_skipping/v_Rope_skipping_id_tJyi2R8J6bg_start_4.5_label_1.mp4
108.02353000640868	1.9837329387664795	93.0	n/a	n/a	Playing_badminton/v_Playing_badminton_id_JoGPqzukskI_start_5.5_label_1.mp4
112.02315783500671	2.0003740787506104	16.0	n/a	n/a	Brushing_teeth/v_Brushing_teeth_id_PVhFgUbyXqs_start_3.0_label_1.mp4
116.02285289764404	2.000401020050049	170.0	n/a	n/a	Volleyball/v_Volleyball_id_gn4vWeDDXKE_start_33.5_label_1.mp4
120.02248191833496	2.0003581047058105	143.0	n/a	n/a	Smoking_hookah/v_Smoking_hookah_id_kCb2WxZQDGo_start_16.0_label_1.mp4
124.02217388153076	2.0003671646118164	8.0	n/a	n/a	Baton_twirling/v_Baton_twirling_id_JDkD9hSJmg8_start_28.5_label_1.mp4
132.02144598960876	2.0003998279571533	133.0	n/a	n/a	Scuba_diving/v_Scuba_diving_id_sPHGg6a7LD4_start_49.0_label_1.mp4
136.02109789848328	2.0005481243133545	172.0	n/a	n/a	Walking_the_dog/v_Walking_the_dog_id_Zo8sNZXiKxQ_start_41.0_label_1.mp4
140.02076196670532	2.000483989715576	61.0	-1.0	0.9127428531646729	Having_an_ice_cream/v_Having_an_ice_cream_id_8IbpZfrifHk_start_18.5_label_1.mp4
144.02042984962463	2.0003840923309326	44.0	n/a	n/a	Doing_step_aerobics/v_Doing_step_aerobics_id_eUK87_w926k_start_22.5_label_1.mp4
148.02009987831116	2.0005340576171875	67.0	n/a	n/a	Hurling/v_Hurling_id_sa4DnNtTE9c_start_44.5_label_1.mp4
156.0194170475006	2.000333786010742	92.0	n/a	n/a	Playing_accordion/v_Playing_accordion_id_5J-K5CfUsgI_start_77.0_label_1.mp4
160.01906490325928	2.000524044036865	14.0	n/a	n/a	Breakdancing/v_Breakdancing_id_YvPbEEakcj8_start_37.0_label_1.mp4
164.01873302459717	2.0004589557647705	2.0	n/a	n/a	Arm_wrestling/v_Arm_wrestling_id_YF7YrD3u0Uw_start_32.5_label_1.mp4
168.01837992668152	2.00049901008606	131.0	n/a	n/a	Running_a_marathon/v_Running_a_marathon_id_i5wYcJIV5r8_start_6.5_label_1.mp4
172.01805782318115	2.0002920627593994	59.0	n/a	n/a	Hand_washing_clothes/v_Hand_washing_clothes_id_SkBmnkBdeX8_start_7.0_label_1.mp4
180.01736497879028	2.000409841537476	120.0	n/a	n/a	Preparing_salad/v_Preparing_salad_id_-BJfsqzmeYg_start_142.5_label_1.mp4
184.01702499389648	2.000699996948242	77.0	n/a	n/a	Longboarding/v_Longboarding_id_hj4w-J8ICXA_start_41.5_label_1.mp4
188.0166478157044	2.0013740062713623	178.0	n/a	n/a	Windsurfing/v_Windsurfing_id_XUSaJXCJKDo_start_6.0_label_1.mp4
192.0160298347473	2.0007212162017822	94.0	n/a	n/a	Playing_bagpipes/v_Playing_bagpipes_id_8Mus-Mcq-so_start_26.5_label_1.mp4
196.01601600646973	2.0004308223724365	46.0	n/a	n/a	Drum_corps/v_Drum_corps_id_rYoZq7xEWms_start_145.0_label_1.mp4
204.01528787612915	2.0001220703125	75.0	n/a	n/a	Laying_tile/v_Laying_tile_id_1ZMLzufbQmY_start_55.5_label_1.mp4
208.01493501663208	2.000437021255493	43.0	-1.0	0.6304600238800049	Doing_nails/v_Doing_nails_id_I4UeMXxjhFI_start_26.0_label_1.mp4
212.0146698951721	2.000396966934204	115.0	n/a	n/a	Pole_vault/v_Pole_vault_id_bKOha1r4Uzg_start_145.0_label_1.mp4
216.01429200172424	1.8837239742279053	34.0	-1.0	0.5397980213165283	Decorating_the_Christmas_tree/v_Decorating_the_Christmas_tree_id_L8L7jLPr2J4_start_29.5_label_1.mp4
220.01398301124573	2.000253915786743	24.0	n/a	n/a	Carving_jack-o-lanterns/v_Carving_jack-o-lanterns_id_L2otSq4m9Uw_start_42.5_label_1.mp4
228.01323795318604	2.000472068786621	9.0	n/a	n/a	Beach_soccer/v_Beach_soccer_id_tmck69qmveQ_start_25.0_label_1.mp4
232.01287984848025	2.000562191009521	74.0	n/a	n/a	Knitting/v_Knitting_id_rgY3yqCtbqw_start_7.0_label_1.mp4
236.0125699043274	2.033328056335449	124.0	1.0	1.1039748191833496	Rafting/v_Rafting_id_IX7NXCH7zJo_start_52.0_label_1.mp4
240.0122308731079	2.000363111495972	21.0	n/a	n/a	Camel_ride/v_Camel_ride_id_wGqGCtc6tA4_start_19.5_label_1.mp4
244.01190900802607	2.0003809928894043	116.0	n/a	n/a	Polishing_forniture/v_Polishing_forniture_id_Zeov6LMH6nI_start_133.5_label_1.mp4
252.01121401786804	2.0003488063812256	31.0	n/a	n/a	Cricket/v_Cricket_id_TRyDgOTjDgU_start_109.5_label_1.mp4
256.01085591316223	2.0004589557647705	173.0	n/a	n/a	Washing_dishes/v_Washing_dishes_id_4CzXhG6tkdY_start_67.5_label_1.mp4
260.01051783561707	2.000673055648804	54.0	n/a	n/a	Getting_a_tattoo/v_Getting_a_tattoo_id_KePzBbaDo8k_start_13.5_label_1.mp4
264.0097708702088	2.0504820346832275	180.0	n/a	n/a	Zumba/v_Zumba_id_W9HUbnfcqI0_start_94.5_label_1.mp4
268.00986099243164	2.0170719623565674	153.0	n/a	n/a	Swimming/v_Swimming_id_w_e_bhyoJio_start_37.5_label_1.mp4
276.00917291641235	2.000673055648804	64.0	n/a	n/a	Hopscotch/v_Hopscotch_id_5AHAzkXg-PA_start_5.0_label_1.mp4
280.0088169574737	2.000251054763794	28.0	n/a	n/a	Cleaning_shoes/v_Cleaning_shoes_id_O68MuqZfJfI_start_12.5_label_1.mp4
284.0084710121155	2.0170998573303223	50.0	n/a	n/a	Fun_sliding_down/v_Fun_sliding_down_id_NjW6f7QmRqk_start_6.0_label_1.mp4
288.0081639289856	2.017262935638428	11.0	n/a	n/a	Belly_dance/v_Belly_dance_id_y6ry7xB44vQ_start_26.0_label_1.mp4
292.00778698921204	2.01697301864624	96.0	n/a	n/a	Playing_blackjack/v_Playing_blackjack_id_TPB_fe-Emd4_start_46.5_label_1.mp4
