onset	duration	trial_type	response	response_time	stim_file
12.015538930892944	2.067249059677124	33.0	-1.0	0.4702169895172119	Cutting_the_grass/v_Cutting_the_grass_id_TpuzBY8dKh8_start_21.5_label_1.mp4
16.015208959579468	2.000324010848999	36.0	1.0	0.4573469161987304	Discus_throw/v_Discus_throw_id_7r6jbvifyuk_start_15.5_label_1.mp4
20.014917850494385	2.000399112701416	143.0	-1.0	0.4656710624694824	Smoking_hookah/v_Smoking_hookah_id_q3JCddmaDAs_start_17.5_label_1.mp4
24.01460289955139	2.017014980316162	52.0	-1.0	0.4094631671905517	Getting_a_haircut/v_Getting_a_haircut_id_I6wRQ4Uf290_start_7.5_label_1.mp4
28.01426076889038	2.0002760887146	179.0	-1.0	0.4584391117095947	Wrapping_presents/v_Wrapping_presents_id_VlXPkaPWH40_start_141.0_label_1.mp4
36.013521909713745	2.000432014465332	14.0	1.0	0.8190438747406006	Breakdancing/v_Breakdancing_id__ED4xYrE6as_start_203.0_label_1.mp4
40.013163805007935	2.000500202178955	75.0	-1.0	0.5473361015319824	Laying_tile/v_Laying_tile_id_QGWoa8m2SXk_start_4.5_label_1.mp4
44.01287198066712	2.000616788864136	92.0	-1.0	1.0356152057647705	Playing_accordion/v_Playing_accordion_id_nTye_o9bpjw_start_50.0_label_1.mp4
48.01257991790772	2.0015039443969727	169.0	-1.0	0.90720796585083	Vacuuming_floor/v_Vacuuming_floor_id_Z5XC3alAQ6c_start_35.5_label_1.mp4
52.01219582557678	2.017047166824341	71.0	-1.0	0.6757469177246094	Kayaking/v_Kayaking_id_dCdK7gsPcl0_start_9.0_label_1.mp4
60.01157879829407	2.000328063964844	9.0	1.0	0.4530839920043945	Beach_soccer/v_Beach_soccer_id_iX5rVpV4RnA_start_39.0_label_1.mp4
64.01089191436768	2.0004940032958984	159.0	-1.0	0.5095739364624023	Trimming_branches_or_hedges/v_Trimming_branches_or_hedges_id_cYvx536BBi0_start_5.0_label_1.mp4
68.01083779335022	2.033529043197632	138.0	1.0	0.724877119064331	Shuffleboard/v_Shuffleboard_id_TgpYDIE3MRQ_start_20.0_label_1.mp4
72.01055383682251	1.999833106994629	140.0	1.0	0.4865639209747314	Skiing/v_Skiing_id_LkvtwzMBCsk_start_174.5_label_1.mp4
76.0101490020752	2.0173499584198	123.0	-1.0	0.8776061534881592	Putting_on_shoes/v_Putting_on_shoes_id_odfWb3wV3Lk_start_46.5_label_1.mp4
84.00948190689087	2.000808954238892	68.0	-1.0	0.671004056930542	Ice_fishing/v_Ice_fishing_id_7Sj15WnN13s_start_43.0_label_1.mp4
88.00913977622986	2.016998052597046	17.0	n/a	n/a	Building_sandcastles/v_Building_sandcastles_id_GAue4xdzEBU_start_7.0_label_1.mp4
92.00854182243349	2.000931024551392	47.0	1.0	0.4236021041870117	Elliptical_trainer/v_Elliptical_trainer_id_16V2wMmCgAE_start_4.5_label_1.mp4
96.0084228515625	2.017099142074585	76.0	1.0	0.999526023864746	Long_jump/v_Long_jump_id_MKN4uYER8f8_start_8.5_label_1.mp4
100.00760579109192	2.017575025558472	130.0	1.0	0.5039200782775879	Rope_skipping/v_Rope_skipping_id_Mm-yz131rG8_start_17.5_label_1.mp4
108.0240888595581	1.983957052230835	174.0	-1.0	0.3371281623840332	Washing_hands/v_Washing_hands_id_iTS3Kg-ACnk_start_7.5_label_1.mp4
112.00706696510316	2.017164945602417	105.0	-1.0	0.8169422149658203	Playing_lacrosse/v_Playing_lacrosse_id_q-iNSBz7tFE_start_7.5_label_1.mp4
116.00684785842896	2.016803026199341	25.0	1.0	0.521312952041626	Cheerleading/v_Cheerleading_id_YQKTdQoeTXE_start_88.0_label_1.mp4
120.02332282066344	2.000128030776977	148.0	-1.0	0.5616049766540527	Spread_mulch/v_Spread_mulch_id_jJ7H7f9FY6Y_start_48.0_label_1.mp4
124.005539894104	2.0508289337158203	53.0	-1.0	0.5045571327209473	Getting_a_piercing/v_Getting_a_piercing_id_BNEIoFWb13A_start_59.0_label_1.mp4
132.02205991744995	1.984266996383667	28.0	-1.0	0.8106980323791504	Cleaning_shoes/v_Cleaning_shoes_id_Pggk0xT-QYA_start_91.5_label_1.mp4
136.0216999053955	2.0003678798675537	145.0	1.0	1.3070361614227295	Snow_tubing/v_Snow_tubing_id_4hMN942XV_w_start_14.5_label_1.mp4
140.02131700515747	2.000473976135254	44.0	n/a	n/a	Doing_step_aerobics/v_Doing_step_aerobics_id_WTvpUhcs79c_start_30.0_label_1.mp4
144.02101492881775	2.000386953353882	160.0	1.0	0.0004611015319824	Triple_jump/v_Triple_jump_id_BG-jdYrcBkg_start_6.5_label_1.mp4
148.0207018852234	2.000370979309082	129.0	-1.0	1.012125015258789	Rollerblading/v_Rollerblading_id_lOR6PvMHKQ0_start_54.0_label_1.mp4
156.02001690864563	2.00039005279541	57.0	1.0	0.6767411231994629	Hammer_throw/v_Hammer_throw_id_tBPqkBvKl_M_start_4.0_label_1.mp4
160.0196979045868	2.0004630088806152	114.0	1.0	0.4850380420684814	Playing_water_polo/v_Playing_water_polo_id_0OjEtWc_E4s_start_20.5_label_1.mp4
164.01934695243835	2.000272989273072	172.0	-1.0	0.5493931770324707	Walking_the_dog/v_Walking_the_dog_id_RiYH8vh_q78_start_7.0_label_1.mp4
168.01903581619263	2.000296115875244	50.0	-1.0	1.029806137084961	Fun_sliding_down/v_Fun_sliding_down_id_GS3kIXsNtu8_start_101.5_label_1.mp4
172.01867985725403	2.0003910064697266	102.0	-1.0	0.5981400012969971	Playing_harmonica/v_Playing_harmonica_id_6jutvQp41e0_start_5.5_label_1.mp4
180.01794385910034	2.00045108795166	63.0	-1.0	0.4147560596466064	Hitting_a_pinata/v_Hitting_a_pinata_id_vj0S-b6Aqfk_start_23.5_label_1.mp4
184.01764297485352	2.000379800796509	61.0	-1.0	0.4471240043640136	Having_an_ice_cream/v_Having_an_ice_cream_id_vFXT0h-Wt0s_start_35.0_label_1.mp4
188.0173118114472	2.0005300045013428	136.0	1.0	0.6554369926452637	Shot_put/v_Shot_put_id_jrh2pAL9FIk_start_14.5_label_1.mp4
192.0168209075928	2.000570058822632	141.0	-1.0	0.6078910827636719	Slacklining/v_Slacklining_id_Boy8h1VrRIQ_start_15.5_label_1.mp4
196.0166549682617	2.0339529514312744	106.0	-1.0	0.8227319717407227	Playing_piano/v_Playing_piano_id_96dUUmeLLzc_start_50.5_label_1.mp4
204.015969991684	2.000180959701538	108.0	1.0	0.0004549026489257	Playing_pool/v_Playing_pool_id_jvsVUbrwkyk_start_39.0_label_1.mp4
208.01564192771912	2.000450849533081	29.0	1.0	0.4892330169677734	Cleaning_sink/v_Cleaning_sink_id_Y7KVBIzzWpw_start_9.5_label_1.mp4
212.0153079032898	2.0002920627593994	97.0	-1.0	0.6816010475158691	Playing_congas/v_Playing_congas_id__991oLLPXFM_start_28.5_label_1.mp4
216.01499700546265	2.033806800842285	173.0	-1.0	0.4565088748931885	Washing_dishes/v_Washing_dishes_id_84NkmriHn3c_start_25.5_label_1.mp4
220.0147309303284	2.0002989768981934	11.0	-1.0	0.4821908473968506	Belly_dance/v_Belly_dance_id_cGIEPcHNutM_start_181.0_label_1.mp4
228.0139169692993	2.0004630088806152	133.0	1.0	0.3709049224853515	Scuba_diving/v_Scuba_diving_id_wAMMqL26wQk_start_13.0_label_1.mp4
232.0135898590088	2.0005340576171875	20.0	1.0	0.4510841369628906	Calf_roping/v_Calf_roping_id_gxA7bWCdELs_start_34.5_label_1.mp4
236.01325488090515	2.0005650520324707	90.0	-1.0	0.803459882736206	Plastering/v_Plastering_id_GMoZVlHGwX8_start_60.0_label_1.mp4
240.0129067897797	2.000636100769043	5.0	-1.0	0.8439021110534668	Baking_cookies/v_Baking_cookies_id_FHfnSVIHXJ8_start_94.0_label_1.mp4
244.01260685920715	2.00060510635376	113.0	n/a	n/a	Playing_violin/v_Playing_violin_id_dVAJTRleHFo_start_108.0_label_1.mp4
252.0118978023529	2.0005691051483154	56.0	-1.0	0.4529240131378174	Grooming_horse/v_Grooming_horse_id_5YsdlM3Stjo_start_75.0_label_1.mp4
256.01160883903503	2.000395059585572	60.0	-1.0	1.045269012451172	Hanging_wallpaper/v_Hanging_wallpaper_id_thFmyPby78I_start_42.0_label_1.mp4
260.01130294799805	2.0004379749298096	165.0	1.0	0.9256348609924316	Using_the_monkey_bar/v_Using_the_monkey_bar_id_X47pp4QIiQI_start_99.5_label_1.mp4
264.0108659267425	2.000496864318848	94.0	-1.0	0.8458700180053711	Playing_bagpipes/v_Playing_bagpipes_id_rHbQtXo6wLM_start_76.5_label_1.mp4
268.0105857849121	2.000420093536377	40.0	1.0	0.4783558845520019	Doing_karate/v_Doing_karate_id_bOc1nLVJ9a8_start_13.0_label_1.mp4
276.0098578929901	2.000350952148437	177.0	-1.0	0.4072661399841308	Welding/v_Welding_id_lkWGkNT6SX4_start_81.0_label_1.mp4
280.0095608234405	2.000568151473999	167.0	1.0	0.4474301338195801	Using_the_rowing_machine/v_Using_the_rowing_machine_id_MQUGflMjCSw_start_13.5_label_1.mp4
284.0092489719391	2.05029296875	49.0	-1.0	0.8696451187133789	Fixing_the_roof/v_Fixing_the_roof_id_T1imnTxhum8_start_131.0_label_1.mp4
288.00884199142456	2.0171878337860107	31.0	1.0	1.703326940536499	Cricket/v_Cricket_id_DsUipdaV9gA_start_11.5_label_1.mp4
292.00881791114807	2.016845941543579	88.0	-1.0	0.6396408081054688	Painting_furniture/v_Painting_furniture_id_eerHqZaq9OI_start_60.5_label_1.mp4
