onset	duration	trial_type	response	response_time	stim_file
12.01508903503418	2.067426919937134	25.0	-1.0	0.6944489479064941	Cheerleading/v_Cheerleading_id_rlTv2p0CYrs_start_37.5_label_1.mp4
16.014803886413574	2.0003790855407715	149.0	1.0	0.6094880104064941	Springboard_diving/v_Springboard_diving_id_qGfES8OnShU_start_35.0_label_1.mp4
20.01452088356018	2.000330209732056	146.0	1.0	0.4418799877166748	Snowboarding/v_Snowboarding_id__EyKlGsVRCY_start_81.5_label_1.mp4
24.01411509513855	2.000562906265259	47.0	1.0	0.5541868209838867	Elliptical_trainer/v_Elliptical_trainer_id_jMsac9x2q2I_start_6.0_label_1.mp4
28.013782024383545	2.033943891525269	8.0	1.0	0.4733128547668457	Baton_twirling/v_Baton_twirling_id_OrKPYdhAOas_start_28.0_label_1.mp4
36.013001918792725	2.034096956253052	111.0	-1.0	0.5458459854125977	Playing_saxophone/v_Playing_saxophone_id_xeuWIeo6ocg_start_24.0_label_1.mp4
40.01269006729126	2.000150918960572	95.0	1.0	0.7961039543151855	Playing_beach_volleyball/v_Playing_beach_volleyball_id_9th-P90CHBo_start_111.5_label_1.mp4
44.01234698295593	2.0011980533599854	123.0	-1.0	0.5313918590545654	Putting_on_shoes/v_Putting_on_shoes_id_cxrCi0Smm7I_start_46.0_label_1.mp4
48.01202201843262	2.000617027282715	93.0	1.0	0.6283109188079834	Playing_badminton/v_Playing_badminton_id_PMq5DaEH_rc_start_16.0_label_1.mp4
52.01169109344482	2.000497817993164	1.0	1.0	0.4367480278015136	Archery/v_Archery_id_BuyfIer3bwk_start_200.5_label_1.mp4
60.01105308532715	2.000448942184448	145.0	-1.0	1.189399003982544	Snow_tubing/v_Snow_tubing_id_EGSbRPsPAhA_start_14.5_label_1.mp4
64.01062393188477	2.0005900859832764	106.0	-1.0	0.6616668701171875	Playing_piano/v_Playing_piano_id_T4xsDHIcb3o_start_100.0_label_1.mp4
68.01028800010681	2.050420045852661	112.0	1.0	0.5800139904022217	Playing_squash/v_Playing_squash_id_MJ68pG_iyn4_start_28.0_label_1.mp4
72.01002097129822	2.000714063644409	160.0	1.0	0.5182089805603027	Triple_jump/v_Triple_jump_id_GpeNSvMME_E_start_12.0_label_1.mp4
76.00934791564941	2.000699996948242	139.0	1.0	0.6866838932037354	Skateboarding/v_Skateboarding_id_7x8MoRLz8Yg_start_28.0_label_1.mp4
84.00888204574585	2.000531911849976	170.0	1.0	0.5034520626068115	Volleyball/v_Volleyball_id_sk0A2_8yAfY_start_32.5_label_1.mp4
88.00856304168701	2.01705002784729	130.0	1.0	0.5110940933227539	Rope_skipping/v_Rope_skipping_id_hadgd6uDKg8_start_43.5_label_1.mp4
92.0082221031189	2.017030000686645	3.0	-1.0	0.8153789043426514	Assembling_bicycle/v_Assembling_bicycle_id_tFefESjyZ7E_start_85.0_label_1.mp4
96.00792288780212	2.017360210418701	87.0	-1.0	0.4795410633087158	Painting_fence/v_Painting_fence_id_EITp20aMAMg_start_48.5_label_1.mp4
100.00759601593018	2.0170280933380127	63.0	-1.0	0.7761571407318115	Hitting_a_pinata/v_Hitting_a_pinata_id_XDlnDpggckY_start_3.0_label_1.mp4
108.02352690696716	2.0168211460113525	107.0	1.0	0.5686240196228027	Playing_polo/v_Playing_polo_id_m0K3Nsjluxc_start_28.5_label_1.mp4
112.0060169696808	2.017642021179199	53.0	-1.0	0.6571140289306641	Getting_a_piercing/v_Getting_a_piercing_id_z96ASFyRxnM_start_50.0_label_1.mp4
116.00624299049376	2.016819953918457	12.0	-1.0	0.5376369953155518	Blow-drying_hair/v_Blow-drying_hair_id_0DNN5mJaOsE_start_29.0_label_1.mp4
120.02249193191528	2.0337941646575928	79.0	-1.0	0.6644999980926514	Making_a_lemonade/v_Making_a_lemonade_id_Ez4N9pSYdQQ_start_154.0_label_1.mp4
124.02213096618652	2.000385999679565	117.0	-1.0	0.4581611156463623	Polishing_shoes/v_Polishing_shoes_id_6pVQvG3gCC0_start_66.0_label_1.mp4
132.02116703987122	2.000679016113281	129.0	-1.0	0.9548678398132324	Rollerblading/v_Rollerblading_id_Um6ZZmrCZ-A_start_76.5_label_1.mp4
136.02113103866577	2.033625841140747	60.0	-1.0	0.8098850250244141	Hanging_wallpaper/v_Hanging_wallpaper_id_N48Z7Xn7stY_start_128.0_label_1.mp4
140.02073407173157	2.0004889965057373	169.0	-1.0	0.3794779777526855	Vacuuming_floor/v_Vacuuming_floor_id_4mRmg5CHv8I_start_43.0_label_1.mp4
144.02041292190552	2.0006911754608154	74.0	-1.0	0.3955271244049072	Knitting/v_Knitting_id_X0lAEIoVhiA_start_84.0_label_1.mp4
148.02006793022156	2.0338430404663086	91.0	1.0	0.4749298095703125	Plataform_diving/v_Plataform_diving_id_j7TH3z7LEas_start_21.0_label_1.mp4
156.01935601234436	2.000454902648926	59.0	-1.0	0.5969491004943848	Hand_washing_clothes/v_Hand_washing_clothes_id_olk76pEIzaA_start_16.5_label_1.mp4
160.01942801475525	2.000032901763916	142.0	-1.0	0.6612558364868164	Smoking_a_cigarette/v_Smoking_a_cigarette_id_TQp7LXOaX_Y_start_158.0_label_1.mp4
164.01873803138733	2.034008026123047	176.0	-1.0	0.5561308860778809	Waxing_skis/v_Waxing_skis_id_dwiGV0fMqYw_start_57.0_label_1.mp4
168.01834201812744	2.000525951385498	98.0	-1.0	0.5579390525817871	Playing_drums/v_Playing_drums_id_gxbXBp5UpOc_start_40.5_label_1.mp4
172.01798701286316	2.0008749961853027	125.0	-1.0	0.7901661396026611	Raking_leaves/v_Raking_leaves_id_fIjuWa7Yr1w_start_17.5_label_1.mp4
180.01732802391052	2.00051498413086	158.0	-1.0	0.6229250431060791	Throwing_darts/v_Throwing_darts_id_5D4rBDkEZZo_start_57.5_label_1.mp4
184.01694297790527	2.0002970695495605	6.0	-1.0	0.5593860149383545	Ballet/v_Ballet_id_5W9zDhBRpGk_start_30.0_label_1.mp4
188.01662397384644	2.000378131866455	76.0	1.0	0.7997610569000244	Long_jump/v_Long_jump_id_qat8DFAA9_I_start_10.5_label_1.mp4
192.0162479877472	2.00063705444336	157.0	-1.0	0.5679731369018555	Tango/v_Tango_id_Y8TXi455rHI_start_112.5_label_1.mp4
196.01595211029053	2.000255823135376	136.0	1.0	0.7524490356445312	Shot_put/v_Shot_put_id_TPxCsJal8Jc_start_49.0_label_1.mp4
204.0157299041748	1.9998741149902344	178.0	-1.0	0.8650469779968262	Windsurfing/v_Windsurfing_id_Wk2jnQih5m4_start_49.0_label_1.mp4
208.0149130821228	2.000347852706909	82.0	-1.0	0.9934160709381104	Mixing_drinks/v_Mixing_drinks_id_ORwBdXV-GOs_start_63.5_label_1.mp4
212.01454710960388	2.0008528232574463	78.0	-1.0	1.0814530849456787	Making_a_cake/v_Making_a_cake_id_ao2-PkR7abQ_start_167.5_label_1.mp4
216.0142118930817	2.0001330375671387	115.0	1.0	0.6823229789733887	Pole_vault/v_Pole_vault_id_D9Ek7cSRk2o_start_24.5_label_1.mp4
220.01384902000427	2.000843048095703	10.0	-1.0	0.4343948364257812	Beer_pong/v_Beer_pong_id_Xr3v7nKq2oQ_start_4.0_label_1.mp4
228.0131468772888	2.000485181808472	122.0	-1.0	0.6510820388793945	Putting_on_makeup/v_Putting_on_makeup_id_2B6xe9bKKwI_start_1.5_label_1.mp4
232.0126090049744	2.0007009506225586	126.0	-1.0	0.5715959072113037	Riding_bumper_cars/v_Riding_bumper_cars_id_9E2S8H0QyRk_start_52.0_label_1.mp4
236.01247787475583	2.000484228134156	94.0	-1.0	0.731799840927124	Playing_bagpipes/v_Playing_bagpipes_id_Yd3GhThd5UE_start_36.0_label_1.mp4
240.01211094856265	2.033445119857788	156.0	-1.0	0.6832091808319092	Tai_chi/v_Tai_chi_id_AY7CquqbUtw_start_64.0_label_1.mp4
244.01174807548523	2.0004470348358154	150.0	-1.0	0.7804970741271973	Starting_a_campfire/v_Starting_a_campfire_id_wuYA8nbT9gs_start_6.0_label_1.mp4
252.0111129283905	2.0004050731658936	34.0	-1.0	0.8852131366729736	Decorating_the_Christmas_tree/v_Decorating_the_Christmas_tree_id_9VnW8wPssos_start_14.0_label_1.mp4
256.0107479095459	2.033294200897217	90.0	-1.0	0.900691032409668	Plastering/v_Plastering_id_sYs9VyQ3HQE_start_95.5_label_1.mp4
260.01030802726746	2.016988039016724	177.0	-1.0	0.8292911052703857	Welding/v_Welding_id_GUfyOdpvpnw_start_69.5_label_1.mp4
264.0100400447845	2.0333919525146484	132.0	-1.0	0.7573909759521484	Sailing/v_Sailing_id_SD5rvw9IOEc_start_97.5_label_1.mp4
268.0096800327301	2.017106056213379	84.0	-1.0	0.8458528518676758	Mowing_the_lawn/v_Mowing_the_lawn_id_tXpCuBi47Ko_start_62.5_label_1.mp4
276.00881910324097	2.0010910034179688	50.0	-1.0	0.7671949863433838	Fun_sliding_down/v_Fun_sliding_down_id_iTIKEYeEcOA_start_55.0_label_1.mp4
280.00882506370544	2.0169689655303955	51.0	1.0	0.7828822135925293	Futsal/v_Futsal_id_faPm8IJFiys_start_50.5_label_1.mp4
284.0083019733429	2.00019907951355	175.0	1.0	1.1363310813903809	Waterskiing/v_Waterskiing_id_lHW3iBM1L5s_start_66.0_label_1.mp4
288.00803899765015	2.000452041625977	143.0	-1.0	1.2802629470825195	Smoking_hookah/v_Smoking_hookah_id_83wVXfOs2VU_start_17.0_label_1.mp4
292.0076940059662	2.017075061798096	64.0	-1.0	0.6480100154876709	Hopscotch/v_Hopscotch_id_anOncqMrtPM_start_69.0_label_1.mp4
