onset	duration	trial_type	response	response_time	stim_file
12.01518416404724	2.06719183921814	36.0	1.0	0.684133768081665	Discus_throw/v_Discus_throw_id_fXllKPFzqcM_start_12.0_label_1.mp4
16.014790058135986	2.000317096710205	53.0	-1.0	1.103304147720337	Getting_a_piercing/v_Getting_a_piercing_id_GWgo_IwEafg_start_4.0_label_1.mp4
20.014424085617065	2.0004589557647705	149.0	1.0	0.5756769180297852	Springboard_diving/v_Springboard_diving_id_VCBZnQyJYpo_start_3.0_label_1.mp4
24.014137983322144	2.000286102294922	175.0	1.0	0.7039198875427246	Waterskiing/v_Waterskiing_id_Gd99UVq900g_start_9.0_label_1.mp4
28.013740062713623	2.000356912612915	139.0	1.0	1.312303066253662	Skateboarding/v_Skateboarding_id_5i1qhhDJUCc_start_75.0_label_1.mp4
36.01313018798828	2.000408887863159	91.0	1.0	0.600970983505249	Plataform_diving/v_Plataform_diving_id_DO_ZMhKAhs8_start_69.5_label_1.mp4
40.01277899742127	2.0003650188446045	95.0	1.0	0.6012818813323975	Playing_beach_volleyball/v_Playing_beach_volleyball_id_MEcLFRruyBg_start_10.5_label_1.mp4
44.01245307922363	2.0005369186401367	77.0	1.0	0.8031270503997803	Longboarding/v_Longboarding_id_4lFCpGFA1lk_start_13.5_label_1.mp4
48.01206207275391	2.000638961791992	27.0	1.0	0.5859460830688477	Clean_and_jerk/v_Clean_and_jerk_id_rm4RRafhtHI_start_35.0_label_1.mp4
52.0117781162262	2.000028848648072	71.0	1.0	0.562777042388916	Kayaking/v_Kayaking_id_6VNb5H-TQ2o_start_77.0_label_1.mp4
60.01109004020691	2.0003321170806885	89.0	1.0	0.371196985244751	Ping-pong/v_Ping-pong_id_anvzwb0t8zo_start_43.0_label_1.mp4
64.0107250213623	2.050485134124756	116.0	-1.0	0.5774250030517578	Polishing_forniture/v_Polishing_forniture_id_8HxC_gj6F_0_start_92.0_label_1.mp4
68.01034116744995	2.0010769367218018	125.0	-1.0	0.6600661277770996	Raking_leaves/v_Raking_leaves_id_39JUV_juIWM_start_8.5_label_1.mp4
72.0100040435791	1.999953031539917	108.0	1.0	0.756572961807251	Playing_pool/v_Playing_pool_id_Lvjt2VDPk-w_start_139.5_label_1.mp4
76.00971412658691	2.033906936645508	35.0	-1.0	0.4350299835205078	Disc_dog/v_Disc_dog_id_RXwK6aTi0iY_start_15.0_label_1.mp4
84.00905108451843	2.000715970993042	92.0	-1.0	0.4128539562225342	Playing_accordion/v_Playing_accordion_id_OrlTW75Fz0U_start_21.5_label_1.mp4
88.0086920261383	2.0169379711151123	55.0	-1.0	0.4527859687805176	Grooming_dog/v_Grooming_dog_id_ab0rk0O9MqY_start_75.5_label_1.mp4
92.00833106040956	2.01711106300354	62.0	1.0	0.3172030448913574	High_jump/v_High_jump_id_cU-FkJc7Jfg_start_36.5_label_1.mp4
96.00800800323486	2.017332077026367	11.0	-1.0	1.1574490070343018	Belly_dance/v_Belly_dance_id_A48Geevotm0_start_0.5_label_1.mp4
100.02441501617432	2.000362157821656	160.0	1.0	0.3177919387817383	Triple_jump/v_Triple_jump_id_pXhALO7xmCc_start_42.5_label_1.mp4
108.0069661140442	2.00027084350586	7.0	-1.0	0.3271839618682861	Bathing_dog/v_Bathing_dog_id_FFcMrvaR3Wg_start_37.5_label_1.mp4
112.00660395622252	2.0171220302581787	180.0	-1.0	0.7187881469726562	Zumba/v_Zumba_id_q3XLrKeIeDQ_start_97.0_label_1.mp4
116.02298617362976	2.0004940032958984	109.0	1.0	0.4151790142059326	Playing_racquetball/v_Playing_racquetball_id_HdrIC__zqhY_start_51.0_label_1.mp4
120.022616147995	2.0003628730773926	157.0	-1.0	0.4555509090423584	Tango/v_Tango_id_OEYfthgg05s_start_108.5_label_1.mp4
124.0222430229187	2.0338051319122314	100.0	-1.0	0.8865468502044678	Playing_flauta/v_Playing_flauta_id_TaoC3Y5J-HQ_start_45.0_label_1.mp4
132.0214970111847	1.983842134475708	162.0	1.0	0.6413071155548096	Tumbling/v_Tumbling_id_EdXhqAdMAj4_start_6.0_label_1.mp4
136.02122807502747	2.033943891525269	1.0	1.0	0.5994629859924316	Archery/v_Archery_id_NFUq6eI1Z5U_start_30.5_label_1.mp4
140.02089595794678	2.000476121902466	158.0	-1.0	0.5452790260314941	Throwing_darts/v_Throwing_darts_id_H2-rEH9TXR4_start_5.0_label_1.mp4
144.02055597305298	2.0004680156707764	26.0	-1.0	0.7935478687286377	Chopping_wood/v_Chopping_wood_id_oRC732Y2Ii8_start_72.0_label_1.mp4
148.02019715309143	2.000391960144043	67.0	1.0	0.4660179615020752	Hurling/v_Hurling_id_Q6NkYe5igOA_start_33.0_label_1.mp4
156.01941204071045	2.000383138656616	47.0	1.0	0.5226740837097168	Elliptical_trainer/v_Elliptical_trainer_id_TBlx1F1EvTk_start_3.5_label_1.mp4
160.01919317245483	2.0004079341888428	163.0	1.0	0.6669740676879883	Using_parallel_bars/v_Using_parallel_bars_id_kwPDQ8Sgh5c_start_111.5_label_1.mp4
164.0188319683075	2.000540018081665	106.0	-1.0	0.7712240219116211	Playing_piano/v_Playing_piano_id_5KOt9EszTDs_start_4.0_label_1.mp4
168.01853704452515	2.0008060932159424	97.0	-1.0	1.1072349548339844	Playing_congas/v_Playing_congas_id_n2veqGawlDA_start_13.5_label_1.mp4
172.01816606521606	2.0004711151123047	56.0	-1.0	0.8999440670013428	Grooming_horse/v_Grooming_horse_id_dFjx3sDxnZs_start_24.0_label_1.mp4
180.01762413978577	2.000540018081665	37.0	1.0	0.5406560897827148	Dodgeball/v_Dodgeball_id_UYJ05FphMHI_start_70.0_label_1.mp4
184.01754713058472	2.0000338554382324	167.0	1.0	0.4930300712585449	Using_the_rowing_machine/v_Using_the_rowing_machine_id_TIW6P-c1gqw_start_51.0_label_1.mp4
188.0168449878693	2.000460147857666	87.0	-1.0	0.7733480930328369	Painting_fence/v_Painting_fence_id_nvIsH7Puxmw_start_22.5_label_1.mp4
192.01648116111755	2.0004239082336426	18.0	1.0	0.8616650104522705	Bullfighting/v_Bullfighting_id_mnJ_NQRlVPM_start_5.0_label_1.mp4
196.0161089897156	2.0007030963897705	127.0	1.0	0.838076114654541	Rock_climbing/v_Rock_climbing_id_ajjJFhbMcmI_start_16.5_label_1.mp4
204.0154180526733	2.017146110534668	65.0	1.0	0.5661060810089111	Horseback_riding/v_Horseback_riding_id_yUK7aah3Otc_start_19.5_label_1.mp4
208.015123128891	2.000427961349488	43.0	-1.0	0.3590679168701172	Doing_nails/v_Doing_nails_id_TCEGFv6E82g_start_7.0_label_1.mp4
212.01480913162231	2.033998966217041	28.0	-1.0	0.6619420051574707	Cleaning_shoes/v_Cleaning_shoes_id_BpWXXG0k78o_start_99.0_label_1.mp4
216.0144829750061	2.0340681076049805	15.0	-1.0	0.4463379383087158	Brushing_hair/v_Brushing_hair_id_tmcqPsdUgWA_start_26.5_label_1.mp4
220.0140910148621	2.000504970550537	136.0	1.0	0.6641149520874023	Shot_put/v_Shot_put_id_VIqXG5L9nnE_start_4.0_label_1.mp4
228.0133941173553	2.000447988510132	33.0	-1.0	0.624812126159668	Cutting_the_grass/v_Cutting_the_grass_id_ZkIuDhsdxSk_start_24.0_label_1.mp4
232.0131251811981	2.0172119140625	64.0	-1.0	0.6084189414978027	Hopscotch/v_Hopscotch_id_ouX8DcH-tF0_start_1.5_label_1.mp4
236.0127530097961	2.0004680156707764	78.0	-1.0	0.7695119380950928	Making_a_cake/v_Making_a_cake_id_pb-1Z8xdfpY_start_46.5_label_1.mp4
240.0124261379242	2.033764839172364	140.0	1.0	0.4405820369720459	Skiing/v_Skiing_id_UYmcm5bKvxk_start_89.5_label_1.mp4
244.01200604438785	2.000504970550537	88.0	-1.0	0.7621860504150391	Painting_furniture/v_Painting_furniture_id_HUZljZ1MtGM_start_42.0_label_1.mp4
252.0114221572876	2.0005688667297363	128.0	-1.0	0.8348829746246338	Rock-paper-scissors/v_Rock-paper-scissors_id_MyCa-LHtIKE_start_18.5_label_1.mp4
256.01077914237976	2.033852815628052	138.0	1.0	0.9942240715026855	Shuffleboard/v_Shuffleboard_id_Fpcp2t855P4_start_51.0_label_1.mp4
260.0106990337372	2.0004539489746094	173.0	-1.0	0.5955100059509277	Washing_dishes/v_Washing_dishes_id_J1lZVQN0YSU_start_4.0_label_1.mp4
264.010332107544	2.000246047973633	171.0	1.0	0.7322530746459961	Wakeboarding/v_Wakeboarding_id_1NKWKZVVCSc_start_45.5_label_1.mp4
268.01009798049927	2.000776052474976	31.0	1.0	0.6041009426116943	Cricket/v_Cricket_id_v8bXqLizviQ_start_38.0_label_1.mp4
276.0093569755554	2.000185012817383	63.0	-1.0	0.4293138980865478	Hitting_a_pinata/v_Hitting_a_pinata_id_iFnxgpEDTr4_start_8.0_label_1.mp4
280.00898599624634	1.999999046325684	110.0	-1.0	0.4456920623779297	Playing_rubik_cube/v_Playing_rubik_cube_id_h4N22DApP_Y_start_179.0_label_1.mp4
284.0087151527405	2.0170040130615234	176.0	1.0	0.8129298686981201	Waxing_skis/v_Waxing_skis_id_HeEp8ChRrlA_start_51.5_label_1.mp4
288.00835514068604	2.0169639587402344	34.0	-1.0	0.4693770408630371	Decorating_the_Christmas_tree/v_Decorating_the_Christmas_tree_id_tQSJf2QfWVc_start_44.5_label_1.mp4
292.0080921649933	1.999863862991333	101.0	-1.0	0.3668429851531982	Playing_guitarra/v_Playing_guitarra_id_uUw-JOt2Gwk_start_33.5_label_1.mp4
