onset	duration	trial_type	response	response_time	stim_file
12.015260934829712	2.0672309398651123	34.0	-1.0	0.7197060585021973	Decorating_the_Christmas_tree/v_Decorating_the_Christmas_tree_id_tiJzgvsHqtU_start_3.0_label_1.mp4
16.01568293571472	2.000037908554077	107.0	1.0	0.8987400531768799	Playing_polo/v_Playing_polo_id_LH4XAJpO6A0_start_42.5_label_1.mp4
20.01460599899292	2.0005040168762207	8.0	1.0	0.9950919151306152	Baton_twirling/v_Baton_twirling_id_w2OH0tMeDdY_start_46.0_label_1.mp4
24.014240026474	2.00098180770874	110.0	-1.0	0.6834378242492676	Playing_rubik_cube/v_Playing_rubik_cube_id_pJgZLRiZRnY_start_21.0_label_1.mp4
28.013983964920044	2.0008249282836914	64.0	-1.0	0.531743049621582	Hopscotch/v_Hopscotch_id_x4FS48AogKI_start_78.5_label_1.mp4
36.01346302032471	2.00022292137146	158.0	-1.0	0.9484579563140868	Throwing_darts/v_Throwing_darts_id_jf4I42iGx1M_start_45.5_label_1.mp4
40.01291394233704	2.0170130729675293	166.0	1.0	0.3722691535949707	Using_the_pommel_horse/v_Using_the_pommel_horse_id_-hRHRCGd8H8_start_11.0_label_1.mp4
44.012558937072754	2.000581979751587	66.0	1.0	0.5654070377349854	Hula_hoop/v_Hula_hoop_id_cNE851uTm2s_start_45.5_label_1.mp4
48.012284994125366	2.000704050064087	179.0	-1.0	0.9574029445648192	Wrapping_presents/v_Wrapping_presents_id_-wYgjXsc1XQ_start_90.0_label_1.mp4
52.01189184188843	2.0339741706848145	45.0	-1.0	0.7966821193695068	Drinking_coffee/v_Drinking_coffee_id_ihNYmvUv42E_start_193.5_label_1.mp4
60.01121592521668	2.0004379749298096	81.0	-1.0	0.5346240997314453	Making_an_omelette/v_Making_an_omelette_id_rMxJibol8sA_start_65.5_label_1.mp4
64.01089286804199	2.0334901809692383	124.0	1.0	0.4380018711090088	Rafting/v_Rafting_id_46NmyNTqOT0_start_22.0_label_1.mp4
68.01054286956787	2.000478982925415	82.0	-1.0	0.6395308971405029	Mixing_drinks/v_Mixing_drinks_id_zst2VvdyFUE_start_88.0_label_1.mp4
72.0102219581604	2.000684976577759	164.0	1.0	0.8155391216278076	Using_the_balance_beam/v_Using_the_balance_beam_id_kt_sGN-1prU_start_191.0_label_1.mp4
76.00990295410156	1.999980926513672	24.0	-1.0	0.6484198570251465	Carving_jack-o-lanterns/v_Carving_jack-o-lanterns_id_p8DodrQZDR8_start_19.0_label_1.mp4
84.00921082496643	2.000277042388916	28.0	-1.0	0.5448598861694336	Cleaning_shoes/v_Cleaning_shoes_id_LQ_PZgDVk3g_start_54.0_label_1.mp4
88.008859872818	2.0503990650177	137.0	-1.0	0.7509989738464355	Shoveling_snow/v_Shoveling_snow_id_sf0yZLyGejw_start_87.5_label_1.mp4
92.00855302810668	2.017056941986084	139.0	1.0	1.1206660270690918	Skateboarding/v_Skateboarding_id_p8les533Swg_start_4.5_label_1.mp4
96.00848603248596	2.049940824508667	39.0	1.0	0.6958129405975342	Doing_fencing/v_Doing_fencing_id_-VDOtuSVVZI_start_81.0_label_1.mp4
100.0245189666748	2.0003199577331543	103.0	1.0	0.8253529071807861	Playing_ice_hockey/v_Playing_ice_hockey_id_vS5lk7fuA_g_start_112.0_label_1.mp4
108.0066978931427	2.00062894821167	97.0	-1.0	0.3389410972595215	Playing_congas/v_Playing_congas_id_PrTfix9wm-A_start_9.0_label_1.mp4
112.0235879421234	2.000300884246826	163.0	1.0	0.3543510437011719	Using_parallel_bars/v_Using_parallel_bars_id_YjyP8jcKjeQ_start_8.5_label_1.mp4
116.00651097297668	2.0504589080810547	146.0	1.0	0.7213330268859863	Snowboarding/v_Snowboarding_id_cpam1QwLJxQ_start_131.0_label_1.mp4
120.02282691001892	2.000455141067505	86.0	-1.0	0.4270298480987549	Painting/v_Painting_id_8UjCPZbahek_start_82.5_label_1.mp4
124.02248096466064	2.000307083129883	13.0	-1.0	1.0354220867156982	Braiding_hair/v_Braiding_hair_id_Rk7Z-CchqJU_start_47.5_label_1.mp4
132.0218210220337	2.0003669261932373	125.0	-1.0	0.9161171913146972	Raking_leaves/v_Raking_leaves_id_FgEnKmTkP2Q_start_9.0_label_1.mp4
136.02145504951477	2.000576972961426	176.0	-1.0	0.8203608989715576	Waxing_skis/v_Waxing_skis_id_vYtM-tHKYCw_start_1.5_label_1.mp4
140.02114391326904	2.0004329681396484	126.0	-1.0	0.5328030586242676	Riding_bumper_cars/v_Riding_bumper_cars_id_juHHiTT97g8_start_24.0_label_1.mp4
144.02078199386597	2.0005998611450195	93.0	1.0	0.5010879039764404	Playing_badminton/v_Playing_badminton_id_LENa1Fx9TWg_start_38.5_label_1.mp4
148.0204439163208	2.000330924987793	169.0	-1.0	0.3894948959350586	Vacuuming_floor/v_Vacuuming_floor_id_j8iJQ-kqWoo_start_96.0_label_1.mp4
156.01979994773865	2.0004940032958984	73.0	-1.0	0.9899728298187256	Kneeling/v_Kneeling_id_KAbciuGGbaI_start_4.5_label_1.mp4
160.01943492889404	2.000404119491577	113.0	-1.0	0.5744478702545166	Playing_violin/v_Playing_violin_id_MOg8Cz9yfWg_start_115.5_label_1.mp4
164.01908683776855	2.000434160232544	132.0	-1.0	0.5028350353240967	Sailing/v_Sailing_id_iFle9YZCzLw_start_20.0_label_1.mp4
168.01852583885193	2.0008411407470703	40.0	1.0	0.5989508628845215	Doing_karate/v_Doing_karate_id_ZkUb1O0zcVY_start_26.0_label_1.mp4
172.0183880329132	2.000609874725342	101.0	-1.0	0.4394571781158447	Playing_guitarra/v_Playing_guitarra_id_GW1fQMt99ac_start_29.0_label_1.mp4
180.01772499084473	2.000886917114258	143.0	-1.0	0.7679400444030762	Smoking_hookah/v_Smoking_hookah_id_q8qvNMr-HS4_start_1.0_label_1.mp4
184.0178928375244	2.000017166137696	17.0	-1.0	0.7365760803222656	Building_sandcastles/v_Building_sandcastles_id_WD9Zb3jPG18_start_91.5_label_1.mp4
188.017060995102	2.0005810260772705	117.0	-1.0	0.6727619171142578	Polishing_shoes/v_Polishing_shoes_id_HSmYvybv0Xk_start_114.0_label_1.mp4
192.0167188644409	2.000349998474121	90.0	-1.0	0.5372819900512695	Plastering/v_Plastering_id_3BStobq2xk4_start_86.5_label_1.mp4
196.0163848400116	2.000279188156128	150.0	-1.0	0.7538750171661377	Starting_a_campfire/v_Starting_a_campfire_id_VTtRk9vvZoY_start_81.0_label_1.mp4
204.01635885238647	1.99984097480774	172.0	-1.0	0.6822330951690674	Walking_the_dog/v_Walking_the_dog_id_Co3LnXOXsEQ_start_4.5_label_1.mp4
208.0153858661652	2.0008230209350586	62.0	1.0	1.1385869979858398	High_jump/v_High_jump_id_Xehbpx3mI2o_start_5.0_label_1.mp4
212.01480793952945	2.00117301940918	140.0	1.0	0.6503551006317139	Skiing/v_Skiing_id_fa4IyCR1bXM_start_137.0_label_1.mp4
216.0147540569305	2.00038480758667	178.0	1.0	0.6512248516082764	Windsurfing/v_Windsurfing_id_gKWQf783fX0_start_43.0_label_1.mp4
220.0143768787384	2.033812999725342	116.0	-1.0	0.7703499794006348	Polishing_forniture/v_Polishing_forniture_id_4GGqcWBrn1U_start_55.5_label_1.mp4
228.01369786262512	2.000444173812866	87.0	-1.0	0.4842908382415771	Painting_fence/v_Painting_fence_id_9UExNLRL3p4_start_7.0_label_1.mp4
232.01333785057068	2.001173973083496	102.0	-1.0	0.3961300849914551	Playing_harmonica/v_Playing_harmonica_id_BridOQyj_mQ_start_19.0_label_1.mp4
236.01298904418945	2.000984907150269	58.0	-1.0	0.4048528671264648	Hand_car_wash/v_Hand_car_wash_id_ok9M3V2-8A8_start_113.0_label_1.mp4
240.012708902359	2.000685930252075	12.0	-1.0	0.9812390804290771	Blow-drying_hair/v_Blow-drying_hair_id_fBptLMYbjKU_start_148.0_label_1.mp4
244.01230788230896	2.0004711151123047	108.0	-1.0	1.1175978183746338	Playing_pool/v_Playing_pool_id_XN6dhpUMVTc_start_36.0_label_1.mp4
252.01165199279785	2.000347852706909	123.0	-1.0	0.5103890895843506	Putting_on_shoes/v_Putting_on_shoes_id_UIgwnDxZWBM_start_53.0_label_1.mp4
256.01131892204285	2.00016713142395	60.0	-1.0	0.6231191158294678	Hanging_wallpaper/v_Hanging_wallpaper_id_t9vd30pK9zA_start_48.5_label_1.mp4
260.0109920501709	2.000694990158081	168.0	1.0	0.3589239120483398	Using_uneven_bars/v_Using_uneven_bars_id_FCGOtTbfZhM_start_5.5_label_1.mp4
264.01096296310425	2.000432014465332	49.0	-1.0	0.3432888984680176	Fixing_the_roof/v_Fixing_the_roof_id_e5QG9acAH0M_start_20.0_label_1.mp4
268.00998091697693	2.017632007598877	170.0	1.0	0.4388060569763183	Volleyball/v_Volleyball_id_2IUyDNLhmSc_start_36.0_label_1.mp4
276.0096049308777	2.0006520748138428	173.0	-1.0	0.3922579288482666	Washing_dishes/v_Washing_dishes_id_egiZ8J9zmiM_start_43.0_label_1.mp4
280.0092680454254	2.017080783843994	29.0	-1.0	1.0720419883728027	Cleaning_sink/v_Cleaning_sink_id_9f_NSIH_bN4_start_72.5_label_1.mp4
284.0090389251709	2.0169999599456787	18.0	-1.0	0.9123649597167968	Bullfighting/v_Bullfighting_id_1z9oORsDKUw_start_7.0_label_1.mp4
288.00858783721924	2.0171470642089844	128.0	-1.0	0.7846980094909668	Rock-paper-scissors/v_Rock-paper-scissors_id_8RatlKP69Ho_start_41.0_label_1.mp4
292.0082540512085	2.017119884490967	76.0	1.0	0.9210350513458252	Long_jump/v_Long_jump_id_9Hv2OtpVXXQ_start_5.0_label_1.mp4
