onset	duration	trial_type	response	response_time	stim_file
12.02175998687744	2.067464828491211	160.0	1.0	1.0972239971160889	Triple_jump/v_Triple_jump_id_Jx-R6LssX0c_start_2.5_label_1.mp4
16.02170991897583	2.000488042831421	56.0	-1.0	1.1803030967712402	Grooming_horse/v_Grooming_horse_id_yAUFCiTO6oo_start_101.5_label_1.mp4
20.02142095565796	2.033721923828125	47.0	1.0	1.0433940887451172	Elliptical_trainer/v_Elliptical_trainer_id__Ry-RE_unC4_start_55.5_label_1.mp4
24.02099084854126	2.000431060791016	154.0	-1.0	1.2770678997039795	Swinging_at_the_playground/v_Swinging_at_the_playground_id_BrIAU34oYCs_start_79.0_label_1.mp4
28.02065896987915	2.0005898475646973	64.0	-1.0	1.205414056777954	Hopscotch/v_Hopscotch_id_y473vyH0lCM_start_44.0_label_1.mp4
36.019943952560425	1.9834799766540527	15.0	-1.0	1.2311780452728271	Brushing_hair/v_Brushing_hair_id_2g-Ec4DJbCY_start_2.5_label_1.mp4
40.01964282989502	2.0004069805145264	71.0	1.0	1.3823869228363037	Kayaking/v_Kayaking_id_m2cfODI0V_M_start_105.0_label_1.mp4
44.01934194564819	2.0004689693450928	156.0	1.0	1.2787370681762695	Tai_chi/v_Tai_chi_id_JCS4VPcSrIg_start_75.0_label_1.mp4
48.01892781257629	2.00061297416687	85.0	1.0	1.2551069259643557	Paintball/v_Paintball_id_4IZ30BQDJ-o_start_43.0_label_1.mp4
52.01858878135681	2.000584125518799	116.0	-1.0	5.647426128387451	Polishing_forniture/v_Polishing_forniture_id_YOD_R470UPs_start_42.0_label_1.mp4
60.017897844314575	2.000049114227295	167.0	1.0	1.1684081554412842	Using_the_rowing_machine/v_Using_the_rowing_machine_id_PgUnHSpJ6Bw_start_92.0_label_1.mp4
64.01759386062622	2.000622034072876	109.0	1.0	1.184256076812744	Playing_racquetball/v_Playing_racquetball_id_B4-G_QAu-po_start_31.0_label_1.mp4
68.01722192764282	2.000685930252075	77.0	1.0	0.9367270469665528	Longboarding/v_Longboarding_id_50BpWno7itc_start_14.5_label_1.mp4
72.01686096191406	2.000538825988769	93.0	1.0	1.345093011856079	Playing_badminton/v_Playing_badminton_id_ejUU2esWW9k_start_29.5_label_1.mp4
76.01656198501587	2.000659942626953	34.0	-1.0	3.5213840007781982	Decorating_the_Christmas_tree/v_Decorating_the_Christmas_tree_id_nd9A27JIxB4_start_6.5_label_1.mp4
84.01588678359985	2.000498056411743	16.0	-1.0	0.810250997543335	Brushing_teeth/v_Brushing_teeth_id_9XfITFpENNk_start_2.0_label_1.mp4
88.01554894447327	2.000861883163452	46.0	-1.0	1.1863579750061035	Drum_corps/v_Drum_corps_id_cHHyEBOTGiw_start_5.0_label_1.mp4
92.01548385620116	2.000339984893799	26.0	-1.0	0.9628150463104248	Chopping_wood/v_Chopping_wood_id_LyA3kbb0ggg_start_13.5_label_1.mp4
96.01484298706056	2.00068998336792	33.0	-1.0	0.6751132011413574	Cutting_the_grass/v_Cutting_the_grass_id_prSACsCL8Xg_start_38.5_label_1.mp4
100.01451182365416	2.0004220008850098	10.0	-1.0	5.459647178649902	Beer_pong/v_Beer_pong_id_LIoDJU_HwYg_start_7.0_label_1.mp4
108.0138578414917	2.001063108444214	137.0	-1.0	0.9717130661010742	Shoveling_snow/v_Shoveling_snow_id_fDVVwDesG6o_start_49.0_label_1.mp4
112.01346683502196	2.001194953918457	29.0	-1.0	1.0199830532073977	Cleaning_sink/v_Cleaning_sink_id_9wR5GOfGaPo_start_8.0_label_1.mp4
116.013121843338	2.000844955444336	68.0	-1.0	1.468885898590088	Ice_fishing/v_Ice_fishing_id_uCdy8cnfWTA_start_98.0_label_1.mp4
120.01278495788574	2.000016927719116	111.0	-1.0	0.7977149486541748	Playing_saxophone/v_Playing_saxophone_id_lTSSacV4SyA_start_33.5_label_1.mp4
124.0124409198761	2.000686883926392	178.0	1.0	4.101515054702759	Windsurfing/v_Windsurfing_id_SMupR94u2F0_start_18.0_label_1.mp4
132.01178979873657	2.000655174255371	113.0	-1.0	0.0006299018859863	Playing_violin/v_Playing_violin_id_AvyyomobYPo_start_15.5_label_1.mp4
136.01140594482422	2.0003368854522705	103.0	1.0	0.9990060329437256	Playing_ice_hockey/v_Playing_ice_hockey_id_1qrLBG5dWnc_start_4.5_label_1.mp4
140.0111379623413	2.0005898475646973	38.0	1.0	0.9588871002197266	Doing_crunches/v_Doing_crunches_id_uX-UwKfRvJY_start_68.5_label_1.mp4
144.01079893112183	2.0170440673828125	123.0	-1.0	0.6466012001037598	Putting_on_shoes/v_Putting_on_shoes_id_F2Igw6lvqwk_start_19.5_label_1.mp4
148.01044487953186	2.0006399154663086	144.0	1.0	5.98970103263855	Snatch/v_Snatch_id_1mxcyByOfIY_start_13.0_label_1.mp4
156.05953097343445	2.000657796859741	88.0	-1.0	1.078290939331055	Painting_furniture/v_Painting_furniture_id_UV-4Lp9LSeo_start_156.5_label_1.mp4
160.0094439983368	2.050271987915039	22.0	1.0	0.6388068199157715	Canoeing/v_Canoeing_id_f0Lla4H7ry4_start_96.5_label_1.mp4
164.00906085968018	2.017148017883301	119.0	-1.0	0.6563611030578613	Preparing_pasta/v_Preparing_pasta_id_kTOw0nmKO_g_start_135.5_label_1.mp4
168.00880694389343	2.000109910964966	118.0	-1.0	0.5858719348907471	Powerbocking/v_Powerbocking_id_FEBXm9eNmZc_start_89.0_label_1.mp4
172.00838780403137	2.017019033432007	67.0	1.0	1.1130609512329102	Hurling/v_Hurling_id_J8WxSDLZwu0_start_37.0_label_1.mp4
180.00739979743958	2.000338077545166	87.0	-1.0	0.778825044631958	Painting_fence/v_Painting_fence_id_9K4dF3q_7pM_start_1.0_label_1.mp4
184.0073349475861	2.0171098709106445	155.0	-1.0	1.2501060962677002	Table_soccer/v_Table_soccer_id_7W6vbzF1cDg_start_63.0_label_1.mp4
188.0072448253632	2.01688003540039	41.0	-1.0	0.914430856704712	Doing_kickboxing/v_Doing_kickboxing_id_9Xw6vmkb6Qc_start_16.5_label_1.mp4
192.00686192512512	2.0502169132232666	139.0	1.0	1.1775059700012207	Skateboarding/v_Skateboarding_id_cDxUD6IDtnw_start_50.5_label_1.mp4
196.0229997634888	2.0005650520324707	148.0	-1.0	0.5230379104614258	Spread_mulch/v_Spread_mulch_id_lGLQSVbODqw_start_79.5_label_1.mp4
204.02230286598208	1.983268976211548	99.0	1.0	0.8608968257904053	Playing_field_hockey/v_Playing_field_hockey_id_oT_4b18Nq6Y_start_5.0_label_1.mp4
208.0219988822937	2.000394105911255	141.0	-1.0	0.7242069244384766	Slacklining/v_Slacklining_id_uD69tUkEwv8_start_40.0_label_1.mp4
212.02168488502505	2.0005269050598145	91.0	1.0	0.7325069904327393	Plataform_diving/v_Plataform_diving_id_F0Gt2DJ7OTc_start_110.0_label_1.mp4
216.0213208198548	2.000486135482788	42.0	1.0	1.0368800163269043	Doing_motocross/v_Doing_motocross_id_6JuUYpo85Kc_start_10.0_label_1.mp4
220.02111291885376	2.000273942947388	44.0	-1.0	0.957252025604248	Doing_step_aerobics/v_Doing_step_aerobics_id_dQqApCGd5Ss_start_72.0_label_1.mp4
228.02001690864563	2.0004899501800537	81.0	-1.0	0.6780369281768799	Making_an_omelette/v_Making_an_omelette_id_LVGd0zAy_-E_start_45.5_label_1.mp4
232.01996493339536	2.000417947769165	13.0	-1.0	0.5823090076446533	Braiding_hair/v_Braiding_hair_id_yHTJ62IbGrw_start_12.0_label_1.mp4
236.0196099281311	2.000563859939575	70.0	1.0	0.7425110340118408	Javelin_throw/v_Javelin_throw_id_YFgTbCguyvc_start_6.5_label_1.mp4
240.0192649364472	2.000473022460937	138.0	-1.0	1.7268860340118408	Shuffleboard/v_Shuffleboard_id_uGSxRtczhPI_start_2.0_label_1.mp4
244.0189428329468	2.00085997581482	127.0	1.0	1.127281904220581	Rock_climbing/v_Rock_climbing_id_Zhv6KuJ1Fnk_start_17.0_label_1.mp4
252.0182609558105	2.0004849433898926	145.0	1.0	1.5119290351867676	Snow_tubing/v_Snow_tubing_id_r402e4Qwmss_start_26.0_label_1.mp4
256.0179109573364	2.000476837158203	24.0	-1.0	0.7044169902801514	Carving_jack-o-lanterns/v_Carving_jack-o-lanterns_id_67Zla6lHnrM_start_95.0_label_1.mp4
260.01763582229614	2.033777952194214	1.0	1.0	0.7033188343048096	Archery/v_Archery_id_ktVkXMGWyeU_start_29.5_label_1.mp4
264.0172278881073	2.0005459785461426	78.0	-1.0	0.5850570201873779	Making_a_cake/v_Making_a_cake_id_mMDpuD-vblM_start_12.5_label_1.mp4
268.0168969631195	2.0337088108062744	49.0	-1.0	0.4401090145111084	Fixing_the_roof/v_Fixing_the_roof_id_yT3_O9VU564_start_25.0_label_1.mp4
276.0162329673767	2.00049901008606	89.0	1.0	0.4979481697082519	Ping-pong/v_Ping-pong_id_xtGs5djnesw_start_4.5_label_1.mp4
280.0158269405365	2.0005099773406982	21.0	-1.0	0.4583370685577392	Camel_ride/v_Camel_ride_id_uJWhwoWBY_4_start_9.0_label_1.mp4
284.0155348777771	2.033577919006348	98.0	-1.0	0.6414599418640137	Playing_drums/v_Playing_drums_id_-2h5LVFpoxg_start_17.5_label_1.mp4
288.0151948928833	2.033768892288208	19.0	1.0	0.3537061214447021	Bungee_jumping/v_Bungee_jumping_id_w_H8gJtwc8w_start_17.0_label_1.mp4
292.01483488082886	2.0007131099700928	97.0	-1.0	0.3073239326477051	Playing_congas/v_Playing_congas_id_CpszAEAgLiM_start_51.5_label_1.mp4
