onset	duration	trial_type	response	response_time	stim_file
12.015100955963137	2.0671281814575195	51.0	1.0	0.8860189914703369	Futsal/v_Futsal_id_cwAi7DJ3kQk_start_58.0_label_1.mp4
16.014759063720703	2.00037693977356	52.0	-1.0	0.8090410232543945	Getting_a_haircut/v_Getting_a_haircut_id_Ft65NWVKkd4_start_16.5_label_1.mp4
20.014393091201782	2.000607967376709	161.0	-1.0	1.2014811038970947	Tug_of_war/v_Tug_of_war_id_SnGDUzOzICU_start_36.5_label_1.mp4
24.014079093933105	2.000347852706909	76.0	1.0	0.6578631401062012	Long_jump/v_Long_jump_id_NO9t2sFxXqY_start_4.5_label_1.mp4
28.013676166534424	2.0003409385681152	134.0	-1.0	0.9221198558807372	Sharpening_knives/v_Sharpening_knives_id_AakIyUNqGwA_start_28.0_label_1.mp4
36.01307201385498	2.000416040420532	131.0	1.0	0.5148859024047852	Running_a_marathon/v_Running_a_marathon_id_ofrkSTRhCE4_start_65.0_label_1.mp4
40.01274609565735	2.000431060791016	113.0	-1.0	0.451153039932251	Playing_violin/v_Playing_violin_id_2TeRGST-TBw_start_10.5_label_1.mp4
44.012362003326416	2.017181158065796	17.0	-1.0	1.2427849769592283	Building_sandcastles/v_Building_sandcastles_id_Y0rBAGer0ME_start_5.5_label_1.mp4
48.01201510429382	2.0339670181274414	117.0	-1.0	0.7146728038787842	Polishing_shoes/v_Polishing_shoes_id_KVNl50-UjQ0_start_18.5_label_1.mp4
52.01165294647217	2.0006771087646484	94.0	-1.0	0.7401368618011475	Playing_bagpipes/v_Playing_bagpipes_id_32VYPKSvnSY_start_142.5_label_1.mp4
60.01100397109985	2.000636100769043	6.0	-1.0	0.6368179321289062	Ballet/v_Ballet_id_eIVOBwvv6Uc_start_96.5_label_1.mp4
64.01067399978638	2.00051498413086	99.0	1.0	0.5332329273223877	Playing_field_hockey/v_Playing_field_hockey_id_g0xegSfqzLc_start_49.0_label_1.mp4
68.01035404205322	1.9998900890350344	22.0	1.0	0.4460020065307617	Canoeing/v_Canoeing_id_xIgbQ8b54UA_start_50.5_label_1.mp4
72.01006317138672	1.9838578701019287	126.0	-1.0	0.726464033126831	Riding_bumper_cars/v_Riding_bumper_cars_id_L5YmgB903Zo_start_21.5_label_1.mp4
76.00968098640442	2.017112970352173	48.0	-1.0	0.3975889682769775	Fixing_bicycle/v_Fixing_bicycle_id_GpEwqw99dzM_start_174.0_label_1.mp4
84.00903105735779	2.000624895095825	159.0	-1.0	0.3828351497650146	Trimming_branches_or_hedges/v_Trimming_branches_or_hedges_id_rYl8mCkj1so_start_176.0_label_1.mp4
88.00863814353943	2.0002009868621826	130.0	1.0	0.527677059173584	Rope_skipping/v_Rope_skipping_id_YxXKIB5iINk_start_5.0_label_1.mp4
92.00827407836914	2.0171639919281006	39.0	1.0	0.7990429401397705	Doing_fencing/v_Doing_fencing_id_GV8pB8JXynE_start_10.5_label_1.mp4
96.00794911384584	2.017112970352173	25.0	-1.0	0.3112800121307373	Cheerleading/v_Cheerleading_id_RNgH965E9w8_start_14.0_label_1.mp4
100.00761103630066	2.0340070724487305	49.0	-1.0	0.8550398349761963	Fixing_the_roof/v_Fixing_the_roof_id_C0BxGqbaQVE_start_1.0_label_1.mp4
108.00724816322328	1.9998857975006104	74.0	-1.0	0.7133779525756836	Knitting/v_Knitting_id_8ByKeqjuTrA_start_107.0_label_1.mp4
112.0232880115509	2.00049901008606	69.0	-1.0	0.5606188774108887	Ironing_clothes/v_Ironing_clothes_id_Y6dSqyX7T9Y_start_50.5_label_1.mp4
116.00576996803284	2.0175859928131104	8.0	1.0	0.4171061515808105	Baton_twirling/v_Baton_twirling_id_fP998vWXAIU_start_141.0_label_1.mp4
120.02261996269226	2.03383207321167	111.0	-1.0	0.6960039138793945	Playing_saxophone/v_Playing_saxophone_id_SPB3EbfaAQA_start_95.5_label_1.mp4
124.02226305007936	2.000499963760376	137.0	-1.0	0.5937590599060059	Shoveling_snow/v_Shoveling_snow_id_4FjxSdOLfOo_start_15.0_label_1.mp4
132.0215780735016	2.000462055206299	73.0	-1.0	0.2744090557098388	Kneeling/v_Kneeling_id_GILTOB7sXA4_start_65.0_label_1.mp4
136.0212140083313	2.0004889965057373	172.0	-1.0	0.3868110179901123	Walking_the_dog/v_Walking_the_dog_id_x2AWg_Z5WkA_start_29.0_label_1.mp4
140.02090001106262	2.000615119934082	150.0	-1.0	0.331057071685791	Starting_a_campfire/v_Starting_a_campfire_id_UxDXtJ_uqW8_start_164.0_label_1.mp4
144.02053308486938	2.000618934631348	152.0	-1.0	0.3234529495239258	Surfing/v_Surfing_id_cW2T1lF6bCY_start_37.0_label_1.mp4
148.0201771259308	2.000505924224853	75.0	-1.0	0.6438889503479004	Laying_tile/v_Laying_tile_id_MNDNcATkNgI_start_143.0_label_1.mp4
156.0195231437683	2.0004708766937256	165.0	-1.0	0.6364309787750244	Using_the_monkey_bar/v_Using_the_monkey_bar_id_aCJ1G_cUjvk_start_45.5_label_1.mp4
160.0191559791565	2.0006890296936035	132.0	1.0	0.4127290248870849	Sailing/v_Sailing_id_I5gMxszLdxM_start_4.5_label_1.mp4
164.01881408691406	2.000372886657715	32.0	1.0	0.5331439971923828	Croquet/v_Croquet_id_dOKoUC3egOQ_start_35.5_label_1.mp4
168.01855516433716	2.000382900238037	153.0	1.0	0.5174369812011719	Swimming/v_Swimming_id_rb7yOmv_Sgo_start_14.5_label_1.mp4
172.0181610584259	2.000555992126465	166.0	1.0	0.1978411674499511	Using_the_pommel_horse/v_Using_the_pommel_horse_id_dGMOqMRo52c_start_21.5_label_1.mp4
180.01748704910278	2.0337750911712646	16.0	-1.0	0.4292969703674316	Brushing_teeth/v_Brushing_teeth_id_L5nHR8W2PDE_start_3.5_label_1.mp4
184.0171329975128	2.000504970550537	119.0	-1.0	0.6227469444274902	Preparing_pasta/v_Preparing_pasta_id_gPVwfFQCLyk_start_102.5_label_1.mp4
188.01676297187805	2.0007240772247314	59.0	-1.0	0.807236909866333	Hand_washing_clothes/v_Hand_washing_clothes_id_i8aPphW8wg0_start_12.5_label_1.mp4
192.0164611339569	2.0004470348358154	82.0	-1.0	0.7275569438934326	Mixing_drinks/v_Mixing_drinks_id_XZsiY9S4WpI_start_176.5_label_1.mp4
196.0160801410675	2.000562906265259	102.0	-1.0	0.2798709869384765	Playing_harmonica/v_Playing_harmonica_id_XTU5hT8XS78_start_36.0_label_1.mp4
204.01539206504825	2.0337939262390137	45.0	-1.0	0.4072990417480469	Drinking_coffee/v_Drinking_coffee_id_lW4r_D3upvM_start_53.5_label_1.mp4
208.01511311531067	2.0005099773406982	41.0	-1.0	0.3048539161682129	Doing_kickboxing/v_Doing_kickboxing_id_GIrKOSKuRF4_start_59.0_label_1.mp4
212.0147340297699	2.0006039142608643	122.0	-1.0	0.4891979694366455	Putting_on_makeup/v_Putting_on_makeup_id_CVzLDr1nEBU_start_83.0_label_1.mp4
216.0143480300904	2.000783920288086	24.0	-1.0	0.7935290336608887	Carving_jack-o-lanterns/v_Carving_jack-o-lanterns_id_AqopmJVsemU_start_11.5_label_1.mp4
220.01405715942383	2.000393867492676	156.0	-1.0	0.8339769840240479	Tai_chi/v_Tai_chi_id_2SF9oA4vrko_start_37.0_label_1.mp4
228.0133140087128	2.0004429817199707	4.0	1.0	0.3947880268096924	BMX/v_BMX_id_eUQrVX3_tE0_start_82.5_label_1.mp4
232.013041973114	2.033754110336304	179.0	-1.0	0.8656740188598633	Wrapping_presents/v_Wrapping_presents_id_YGnuJ_cCMag_start_161.5_label_1.mp4
236.0126919746399	2.0337979793548584	70.0	1.0	0.5621540546417236	Javelin_throw/v_Javelin_throw_id_xpuz4Tf9dBk_start_60.5_label_1.mp4
240.01231694221497	2.0004751682281494	83.0	-1.0	0.5636560916900635	Mooping_floor/v_Mooping_floor_id_AQg_CdonkDs_start_182.5_label_1.mp4
244.0120480060577	2.000329971313477	14.0	-1.0	0.8041951656341553	Breakdancing/v_Breakdancing_id_VydODgqcjrI_start_75.5_label_1.mp4
252.01133394241333	2.00044322013855	164.0	1.0	0.924712896347046	Using_the_balance_beam/v_Using_the_balance_beam_id_3XEvwDgOOnI_start_83.5_label_1.mp4
256.01075410842896	2.0009560585021973	2.0	-1.0	1.1490478515625	Arm_wrestling/v_Arm_wrestling_id_8ubGhspS1hw_start_155.0_label_1.mp4
260.01068902015686	2.0002100467681885	81.0	-1.0	1.021838903427124	Making_an_omelette/v_Making_an_omelette_id_eTTw6ijzp7A_start_105.0_label_1.mp4
264.01028895378124	2.0004541873931885	154.0	-1.0	0.6137599945068359	Swinging_at_the_playground/v_Swinging_at_the_playground_id_E5E23aCSv3U_start_52.0_label_1.mp4
268.00994515419006	1.999974012374878	21.0	1.0	1.110569953918457	Camel_ride/v_Camel_ride_id_hghT6yVhQJc_start_90.0_label_1.mp4
276.0092749595642	2.000603199005127	123.0	-1.0	0.5748081207275391	Putting_on_shoes/v_Putting_on_shoes_id_7wrw19K_g_M_start_6.5_label_1.mp4
280.0090129375458	2.017030000686645	90.0	-1.0	0.734503984451294	Plastering/v_Plastering_id_B_aOSaNWHm0_start_113.5_label_1.mp4
284.008584022522	2.050434112548828	143.0	-1.0	0.7094810009002686	Smoking_hookah/v_Smoking_hookah_id_2zvN1cL1uik_start_26.5_label_1.mp4
288.0082759857178	2.017148017883301	124.0	1.0	0.4391829967498779	Rafting/v_Rafting_id_hdUc4uUYh0E_start_81.0_label_1.mp4
292.0079209804535	2.01712703704834	84.0	-1.0	0.647515058517456	Mowing_the_lawn/v_Mowing_the_lawn_id_308tGoy23Ec_start_34.5_label_1.mp4
