onset	duration	trial_type	response	response_time	stim_file
12.015339136123655	2.066985845565796	169.0	-1.0	0.7167448997497559	Vacuuming_floor/v_Vacuuming_floor_id_g44pxLutJRQ_start_6.0_label_1.mp4
16.014923095703125	2.0006818771362305	113.0	-1.0	0.8556108474731445	Playing_violin/v_Playing_violin_id_iOPsNIwhjkE_start_36.5_label_1.mp4
20.014652967453003	2.000394105911255	138.0	-1.0	0.6400699615478516	Shuffleboard/v_Shuffleboard_id_orR865dd2l4_start_16.5_label_1.mp4
24.014288902282715	2.0006251335144043	101.0	-1.0	0.7363560199737549	Playing_guitarra/v_Playing_guitarra_id_zCHb5eaxi8I_start_160.5_label_1.mp4
28.01394510269165	2.000424861907959	149.0	1.0	0.8008570671081543	Springboard_diving/v_Springboard_diving_id_vGePl2lvJVQ_start_4.0_label_1.mp4
36.01321291923523	2.000550985336304	103.0	1.0	0.4493429660797119	Playing_ice_hockey/v_Playing_ice_hockey_id_op9X7fFBGuw_start_72.5_label_1.mp4
40.01286697387696	2.0004770755767822	110.0	-1.0	0.6338739395141602	Playing_rubik_cube/v_Playing_rubik_cube_id_3U-KNaH0ifw_start_52.5_label_1.mp4
44.01257300376892	2.0007259845733643	133.0	1.0	1.3219101428985596	Scuba_diving/v_Scuba_diving_id_A13GegB8MSQ_start_48.5_label_1.mp4
48.01223492622376	2.0004560947418213	59.0	-1.0	0.842501163482666	Hand_washing_clothes/v_Hand_washing_clothes_id_xXuerri-vY4_start_17.0_label_1.mp4
52.0118350982666	2.050616979598999	12.0	-1.0	0.5366461277008057	Blow-drying_hair/v_Blow-drying_hair_id_nwPWxxVRoww_start_118.5_label_1.mp4
60.011160135269165	2.0004758834838867	31.0	1.0	0.7314820289611816	Cricket/v_Cricket_id_se771_bo-CQ_start_3.0_label_1.mp4
64.01082706451416	2.0338408946990967	106.0	-1.0	0.4347648620605469	Playing_piano/v_Playing_piano_id_jpaYJHQKPLw_start_29.0_label_1.mp4
68.01057505607605	2.0001220703125	176.0	-1.0	0.580557107925415	Waxing_skis/v_Waxing_skis_id_UtcXuRW9Xr8_start_83.5_label_1.mp4
72.01016807556152	2.0004899501800537	65.0	1.0	0.7245798110961914	Horseback_riding/v_Horseback_riding_id_qxaAvfaWcvQ_start_5.0_label_1.mp4
76.00984692573547	2.0002660751342773	58.0	-1.0	0.5092461109161377	Hand_car_wash/v_Hand_car_wash_id_oKwW8Tmkg9k_start_33.5_label_1.mp4
84.00917506217957	2.0005178451538086	61.0	-1.0	0.6935300827026367	Having_an_ice_cream/v_Having_an_ice_cream_id_S5lFNkwUbFs_start_22.0_label_1.mp4
88.0088279247284	2.0002641677856445	52.0	-1.0	0.3823838233947754	Getting_a_haircut/v_Getting_a_haircut_id_v3ZKrND8O0Y_start_51.0_label_1.mp4
92.00846695899963	2.017130136489868	144.0	1.0	0.8855710029602051	Snatch/v_Snatch_id_ggnD7WHI1_Q_start_6.0_label_1.mp4
96.00813698768616	2.017090082168579	7.0	-1.0	0.5979578495025635	Bathing_dog/v_Bathing_dog_id_xEAYO8O6Cho_start_141.5_label_1.mp4
100.00783205032349	2.0171120166778564	94.0	-1.0	0.5343000888824463	Playing_bagpipes/v_Playing_bagpipes_id_GC0786tdTa8_start_13.5_label_1.mp4
108.0073549747467	2.000250101089477	78.0	-1.0	0.431577205657959	Making_a_cake/v_Making_a_cake_id_bSC_TmEUorM_start_34.0_label_1.mp4
112.0068221092224	2.01708984375	63.0	-1.0	0.6152880191802979	Hitting_a_pinata/v_Hitting_a_pinata_id_EI653B0uMmQ_start_115.0_label_1.mp4
116.02314805984496	2.000418901443481	28.0	-1.0	0.5515758991241455	Cleaning_shoes/v_Cleaning_shoes_id_643LQkS4KO4_start_38.0_label_1.mp4
120.0228180885315	2.0012569427490234	99.0	1.0	0.7832448482513428	Playing_field_hockey/v_Playing_field_hockey_id_uBmTDp1919Q_start_8.0_label_1.mp4
124.02245092391968	2.0004429817199707	102.0	-1.0	0.2963869571685791	Playing_harmonica/v_Playing_harmonica_id_Py2FbK04p2w_start_28.5_label_1.mp4
132.02180290222168	2.000434160232544	122.0	-1.0	0.312950849533081	Putting_on_makeup/v_Putting_on_makeup_id_XIWPqya55eA_start_90.5_label_1.mp4
136.02145504951477	2.0004239082336426	168.0	1.0	0.5853080749511719	Using_uneven_bars/v_Using_uneven_bars_id_X8jiz-Pbc8c_start_3.5_label_1.mp4
140.02108597755432	2.033751964569092	91.0	1.0	0.8243610858917236	Plataform_diving/v_Plataform_diving_id_wyWj3uifuKY_start_129.0_label_1.mp4
144.02075695991516	2.0005340576171875	162.0	1.0	0.5459818840026855	Tumbling/v_Tumbling_id_TrRYHbSQrUw_start_49.5_label_1.mp4
148.02041792869568	2.0004100799560547	100.0	-1.0	0.3864378929138183	Playing_flauta/v_Playing_flauta_id_wvkSf1o259Q_start_47.0_label_1.mp4
156.01976490020752	2.000272035598755	74.0	-1.0	0.9710588455200196	Knitting/v_Knitting_id_XIA53WfVv04_start_105.0_label_1.mp4
160.0194079875946	2.000633955001831	60.0	-1.0	0.9393608570098876	Hanging_wallpaper/v_Hanging_wallpaper_id_jmHm4KzmDqw_start_127.0_label_1.mp4
164.01901412010193	2.0338358879089355	148.0	-1.0	1.010396957397461	Spread_mulch/v_Spread_mulch_id_qBvXQNhaUys_start_162.5_label_1.mp4
168.01869010925293	2.033536911010742	34.0	-1.0	0.4030590057373047	Decorating_the_Christmas_tree/v_Decorating_the_Christmas_tree_id_P4R_SVdezlI_start_159.5_label_1.mp4
172.01836109161377	2.0004689693450928	165.0	1.0	0.3804419040679931	Using_the_monkey_bar/v_Using_the_monkey_bar_id_8tVnh5m4Aqc_start_3.5_label_1.mp4
180.01766991615295	2.0004920959472656	2.0	1.0	1.1170859336853027	Arm_wrestling/v_Arm_wrestling_id_u396G9683U8_start_12.0_label_1.mp4
184.0173411369324	2.0005719661712646	70.0	1.0	0.8854780197143555	Javelin_throw/v_Javelin_throw_id_AXRphPd00Z8_start_1.0_label_1.mp4
188.01697397232056	2.000667095184326	126.0	-1.0	0.4537661075592041	Riding_bumper_cars/v_Riding_bumper_cars_id_bVDoMQrsnXs_start_7.5_label_1.mp4
192.01666903495789	2.000427007675171	27.0	1.0	0.4541130065917969	Clean_and_jerk/v_Clean_and_jerk_id_bE7CeDm_UMw_start_8.0_label_1.mp4
196.01632404327395	2.000411033630371	164.0	1.0	0.5264649391174316	Using_the_balance_beam/v_Using_the_balance_beam_id_BEdHIPtueV4_start_34.0_label_1.mp4
204.0156590938568	2.000434875488281	32.0	1.0	0.9512388706207277	Croquet/v_Croquet_id_E0B9FG8_-m8_start_178.5_label_1.mp4
208.015310049057	2.000598907470703	3.0	-1.0	0.7274298667907715	Assembling_bicycle/v_Assembling_bicycle_id_h-YIf9tZGp8_start_69.0_label_1.mp4
212.01497292518616	2.0003981590271	17.0	-1.0	0.5918710231781006	Building_sandcastles/v_Building_sandcastles_id_FdDXu-93w1Q_start_8.0_label_1.mp4
216.01461791992188	2.000755071640014	66.0	1.0	0.6080420017242432	Hula_hoop/v_Hula_hoop_id_nlaQl2agdNE_start_19.5_label_1.mp4
220.01432299613955	2.0004749298095703	117.0	-1.0	0.8805642127990723	Polishing_shoes/v_Polishing_shoes_id_LKD6DcpKmcU_start_49.5_label_1.mp4
228.01366901397705	2.0338149070739746	114.0	1.0	0.5678608417510986	Playing_water_polo/v_Playing_water_polo_id_cmkrWF191aQ_start_55.5_label_1.mp4
232.01322603225708	2.0007219314575195	175.0	1.0	0.5935850143432617	Waterskiing/v_Waterskiing_id_MdnqQLqT4pA_start_12.5_label_1.mp4
236.0129599571228	2.033337116241455	15.0	-1.0	0.352910041809082	Brushing_hair/v_Brushing_hair_id_QxjcIR8qhpc_start_121.5_label_1.mp4
240.0126609802246	2.00040602684021	96.0	-1.0	0.4501819610595703	Playing_blackjack/v_Playing_blackjack_id_zUj7bLE-DvE_start_38.0_label_1.mp4
244.0123131275177	2.0005528926849365	89.0	1.0	0.6905231475830078	Ping-pong/v_Ping-pong_id_7yjRlMSvXpo_start_1.5_label_1.mp4
252.01159000396729	2.000303030014038	13.0	-1.0	0.4432170391082763	Braiding_hair/v_Braiding_hair_id_hHRKPTz_1Rk_start_4.0_label_1.mp4
256.011225938797	2.050464153289795	93.0	1.0	0.4176740646362304	Playing_badminton/v_Playing_badminton_id_imK3Ftgz0r8_start_129.0_label_1.mp4
260.01090002059937	2.0170249938964844	160.0	1.0	0.8832409381866455	Triple_jump/v_Triple_jump_id_Im4k1c4d3dc_start_2.5_label_1.mp4
264.0106880664825	2.000478029251098	30.0	-1.0	0.4602560997009277	Cleaning_windows/v_Cleaning_windows_id_-ZviNIiGi7M_start_43.0_label_1.mp4
268.0102159976959	2.000040054321289	97.0	-1.0	0.3250818252563476	Playing_congas/v_Playing_congas_id_YBWRU5ZfYXM_start_67.5_label_1.mp4
276.0096011161804	2.000683784484864	163.0	1.0	0.69309401512146	Using_parallel_bars/v_Using_parallel_bars_id_iRpHasUfZlA_start_14.5_label_1.mp4
280.0091760158539	2.0000150203704834	154.0	-1.0	0.3742110729217529	Swinging_at_the_playground/v_Swinging_at_the_playground_id_f5sctMh2x6Y_start_21.5_label_1.mp4
284.00887989997864	2.0171210765838623	131.0	1.0	0.4053480625152588	Running_a_marathon/v_Running_a_marathon_id_BYzMPee3JUo_start_70.5_label_1.mp4
288.0085229873657	2.0173630714416504	161.0	1.0	0.493582010269165	Tug_of_war/v_Tug_of_war_id_lXePp7HrPN0_start_2.0_label_1.mp4
292.0081660747528	2.017117977142334	36.0	1.0	0.942025899887085	Discus_throw/v_Discus_throw_id_Yl8cpVR-tQU_start_11.5_label_1.mp4
