onset	duration	trial_type	response	response_time	stim_file
12.015355110168455	2.067260980606079	147.0	1.0	0.0004529953002929	Spinning/v_Spinning_id_erlIjFU3Ph4_start_51.5_label_1.mp4
16.014984130859375	2.000618934631348	64.0	-1.0	0.0005049705505371	Hopscotch/v_Hopscotch_id_xllTWLiTuDg_start_67.5_label_1.mp4
20.0146701335907	2.034073829650879	44.0	1.0	0.0007159709930419	Doing_step_aerobics/v_Doing_step_aerobics_id_JdWNp5_QbfM_start_53.5_label_1.mp4
24.01438307762146	2.000391960144043	153.0	1.0	0.0006148815155029	Swimming/v_Swimming_id_42NLnFXQZFs_start_39.5_label_1.mp4
28.014030933380127	2.000591993331909	128.0	-1.0	0.000648021697998	Rock-paper-scissors/v_Rock-paper-scissors_id_2iBdxA8_6ng_start_0.5_label_1.mp4
36.01336312294006	2.0006909370422363	132.0	-1.0	0.0004811286926269	Sailing/v_Sailing_id_vsNt8Jsc1mM_start_58.0_label_1.mp4
40.01302909851074	2.0004799365997314	1.0	1.0	0.0006899833679199	Archery/v_Archery_id_xcCOvONJcPs_start_13.5_label_1.mp4
44.01276302337647	2.000416040420532	10.0	-1.0	0.0005779266357421	Beer_pong/v_Beer_pong_id_LEsaAbLOYto_start_49.0_label_1.mp4
48.012434005737305	2.000678062438965	172.0	-1.0	0.0004739761352539	Walking_the_dog/v_Walking_the_dog_id_PQJdkOGuno8_start_40.0_label_1.mp4
52.01209807395935	2.000304937362671	49.0	-1.0	0.0006630420684814	Fixing_the_roof/v_Fixing_the_roof_id_knW-0jGOMQI_start_54.0_label_1.mp4
60.01148796081543	2.000416040420532	53.0	-1.0	0.0007331371307373	Getting_a_piercing/v_Getting_a_piercing_id_1nw4Ziu0_X4_start_88.5_label_1.mp4
64.01115608215332	2.000809907913208	139.0	n/a	n/a	Skateboarding/v_Skateboarding_id_G-RYbNG8Y3Q_start_42.5_label_1.mp4
68.01085114479065	2.000717878341675	36.0	1.0	0.0005989074707031	Discus_throw/v_Discus_throw_id_914zwPCZbQ0_start_46.0_label_1.mp4
72.01049613952637	2.017145872116089	41.0	1.0	0.0005598068237304	Doing_kickboxing/v_Doing_kickboxing_id_6gfScMoLuYE_start_3.0_label_1.mp4
76.0101990699768	2.0005130767822266	158.0	1.0	0.0006370544433593	Throwing_darts/v_Throwing_darts_id_2gKS4N4ICRc_start_9.5_label_1.mp4
84.00954413414001	2.000337839126587	3.0	-1.0	0.0005359649658203	Assembling_bicycle/v_Assembling_bicycle_id_8x3BZfnrHUQ_start_60.0_label_1.mp4
88.00923204421997	2.000228881835937	164.0	-1.0	0.1865639686584472	Using_the_balance_beam/v_Using_the_balance_beam_id_5kBQ2a2fspQ_start_13.0_label_1.mp4
92.00892901420592	2.0170791149139404	60.0	-1.0	0.0006039142608642	Hanging_wallpaper/v_Hanging_wallpaper_id_k5rmwxit5X0_start_24.5_label_1.mp4
96.00856399536131	2.0171470642089844	31.0	1.0	0.0005519390106201	Cricket/v_Cricket_id_AZCjCiWMkEY_start_10.0_label_1.mp4
100.00831294059752	2.017104148864746	27.0	1.0	0.0004279613494873	Clean_and_jerk/v_Clean_and_jerk_id_NVZk8UEIqK0_start_14.0_label_1.mp4
108.02435493469238	1.983561992645264	56.0	-1.0	0.0007550716400146	Grooming_horse/v_Grooming_horse_id_60vQYqjy5SA_start_44.0_label_1.mp4
112.02402114868164	2.000494956970215	52.0	n/a	n/a	Getting_a_haircut/v_Getting_a_haircut_id_HHxbFK1api4_start_17.0_label_1.mp4
116.00659513473512	2.050895929336548	134.0	-1.0	0.000554084777832	Sharpening_knives/v_Sharpening_knives_id_CreDt53A0mY_start_28.5_label_1.mp4
120.02340412139893	1.967227935791016	45.0	n/a	n/a	Drinking_coffee/v_Drinking_coffee_id_Jxwg86-OgJU_start_27.0_label_1.mp4
124.02303814888	2.000633001327514	98.0	-1.0	0.0006768703460693	Playing_drums/v_Playing_drums_id_nySuZ5Cf9JA_start_76.0_label_1.mp4
132.02244400978088	1.98364806175232	174.0	-1.0	0.0006611347198486	Washing_hands/v_Washing_hands_id_wCZ4hCGhKTw_start_10.0_label_1.mp4
136.0220811367035	2.000782966613769	127.0	1.0	0.0006320476531982	Rock_climbing/v_Rock_climbing_id_6wUBRT5z_bc_start_132.0_label_1.mp4
140.021733045578	2.00051498413086	161.0	1.0	0.0006051063537597	Tug_of_war/v_Tug_of_war_id_cL8lVFsCB6s_start_11.0_label_1.mp4
144.02144408226013	2.000488042831421	130.0	1.0	0.0005939006805419	Rope_skipping/v_Rope_skipping_id_siafoksB1Sw_start_67.5_label_1.mp4
148.02111291885376	2.0004801750183105	178.0	1.0	0.0006439685821533	Windsurfing/v_Windsurfing_id_fLqnIBNp9_o_start_24.5_label_1.mp4
156.0204880237579	2.0003230571746826	168.0	1.0	0.000594139099121	Using_uneven_bars/v_Using_uneven_bars_id_1ptx3ekHeCk_start_42.5_label_1.mp4
160.02020812034607	2.000300884246826	4.0	1.0	0.0004360675811767	BMX/v_BMX_id_eRuzzRIZixc_start_102.5_label_1.mp4
164.0198700428009	2.0336949825286865	103.0	1.0	0.0005609989166259	Playing_ice_hockey/v_Playing_ice_hockey_id_PMKEchYmpP0_start_117.5_label_1.mp4
168.01956510543823	2.000432014465332	14.0	1.0	0.0005879402160644	Breakdancing/v_Breakdancing_id_qufxkWWtVGk_start_60.5_label_1.mp4
172.0191879272461	2.000491142272949	142.0	-1.0	0.0004489421844482	Smoking_a_cigarette/v_Smoking_a_cigarette_id_iw33PwSzyBM_start_13.5_label_1.mp4
180.01859712600708	2.0002949237823486	28.0	-1.0	0.0004680156707763	Cleaning_shoes/v_Cleaning_shoes_id_AD17MtvGIvQ_start_16.5_label_1.mp4
184.0182409286499	2.050453186035156	2.0	1.0	0.0005309581756591	Arm_wrestling/v_Arm_wrestling_id_R_z0QeZFoEM_start_23.0_label_1.mp4
188.01794695854187	2.0005111694335938	66.0	-1.0	0.0005490779876708	Hula_hoop/v_Hula_hoop_id_HG3bRUYo2IA_start_49.0_label_1.mp4
192.01760697364807	2.000574111938477	9.0	1.0	0.0008349418640136	Beach_soccer/v_Beach_soccer_id_9sg6PNTVY-Y_start_73.0_label_1.mp4
196.0173089504242	2.00049901008606	22.0	1.0	0.0006628036499023	Canoeing/v_Canoeing_id_cju_WjkqBNc_start_2.0_label_1.mp4
204.01663208007807	2.000418901443481	141.0	1.0	0.0005819797515869	Slacklining/v_Slacklining_id_QLo5PqULlxw_start_2.5_label_1.mp4
208.01631808280945	2.000653028488159	157.0	-1.0	0.000723123550415	Tango/v_Tango_id_Tmi0m0SU824_start_74.0_label_1.mp4
212.01602506637573	2.000478982925415	20.0	1.0	0.000586986541748	Calf_roping/v_Calf_roping_id_u7fcZBfQv8E_start_2.5_label_1.mp4
216.0156841278076	2.000649929046631	42.0	1.0	0.000788927078247	Doing_motocross/v_Doing_motocross_id_eTP5ei3xIfQ_start_25.0_label_1.mp4
220.0154070854187	2.000548839569092	149.0	1.0	0.0008139610290527	Springboard_diving/v_Springboard_diving_id_iFTU3JUI2IE_start_46.5_label_1.mp4
228.0146689414978	2.000324010848999	110.0	-1.0	0.0006170272827148	Playing_rubik_cube/v_Playing_rubik_cube_id_pI76CiwvPV4_start_45.5_label_1.mp4
232.014389038086	2.0003979206085205	78.0	-1.0	0.0005970001220703	Making_a_cake/v_Making_a_cake_id_pG0OiORlHlk_start_14.5_label_1.mp4
236.01403093338013	2.000797986984253	166.0	1.0	0.0005478858947753	Using_the_pommel_horse/v_Using_the_pommel_horse_id_fWmkUumenTE_start_13.5_label_1.mp4
240.0137710571289	2.000667095184326	170.0	1.0	0.0006060600280761	Volleyball/v_Volleyball_id_aRBGHKsCULw_start_83.0_label_1.mp4
244.01340699195865	2.000595092773437	29.0	-1.0	0.0005478858947753	Cleaning_sink/v_Cleaning_sink_id_AHEZP514J1g_start_106.0_label_1.mp4
252.0127699375153	2.000627994537353	126.0	-1.0	0.0005328655242919	Riding_bumper_cars/v_Riding_bumper_cars_id_YXbmt-A2p4g_start_150.0_label_1.mp4
256.01251697540283	2.000610113143921	24.0	-1.0	0.0005650520324707	Carving_jack-o-lanterns/v_Carving_jack-o-lanterns_id_tbrm3Oq-uN4_start_125.5_label_1.mp4
260.01218605041504	2.000295877456665	63.0	-1.0	0.0726630687713623	Hitting_a_pinata/v_Hitting_a_pinata_id_IvuJI4PJwQc_start_23.5_label_1.mp4
264.0118751525879	2.0169448852539062	152.0	1.0	0.0006642341613769	Surfing/v_Surfing_id_iwTzA16YqyY_start_6.0_label_1.mp4
268.0115280151367	2.000265121459961	137.0	-1.0	0.0005648136138916	Shoveling_snow/v_Shoveling_snow_id_lyVzzZHAiuA_start_75.5_label_1.mp4
276.0108721256256	2.000538825988769	90.0	n/a	n/a	Plastering/v_Plastering_id_an6S9w9uUNs_start_28.0_label_1.mp4
280.01060914993286	2.0171048641204834	146.0	1.0	0.0008189678192138	Snowboarding/v_Snowboarding_id_k5fWisJs4AI_start_14.5_label_1.mp4
284.0102541446686	2.0001938343048096	99.0	1.0	0.0005939006805419	Playing_field_hockey/v_Playing_field_hockey_id_JvE-D9-olsA_start_27.0_label_1.mp4
288.0099301338196	2.000515937805176	107.0	1.0	0.0006470680236816	Playing_polo/v_Playing_polo_id_4TAzCKcsNlk_start_27.0_label_1.mp4
292.0096650123596	2.0003550052642822	51.0	1.0	0.0006370544433593	Futsal/v_Futsal_id_xN2I1gVEEvw_start_17.5_label_1.mp4
