onset	duration	trial_type	response	response_time	stim_file
12.01535987854004	2.067017078399658	136.0	1.0	0.509207010269165	Shot_put/v_Shot_put_id_rTh4AYKwtQQ_start_131.0_label_1.mp4
16.014991998672485	2.000473022460937	84.0	-1.0	0.504260778427124	Mowing_the_lawn/v_Mowing_the_lawn_id_rbDbXXqaZaM_start_80.0_label_1.mp4
20.014737844467163	2.000819206237793	119.0	-1.0	0.4804141521453857	Preparing_pasta/v_Preparing_pasta_id_22qauL6BO8E_start_40.5_label_1.mp4
24.014368057250977	2.0004429817199707	118.0	-1.0	0.4408009052276611	Powerbocking/v_Powerbocking_id_gSFu-JGw9kg_start_28.0_label_1.mp4
28.01405382156372	2.0003821849823	61.0	-1.0	0.6012599468231201	Having_an_ice_cream/v_Having_an_ice_cream_id_guzAOPfMExI_start_1.5_label_1.mp4
36.01333785057068	2.000571012496948	155.0	-1.0	0.4178900718688965	Table_soccer/v_Table_soccer_id_27uIwbUjNmI_start_1.0_label_1.mp4
40.0130569934845	2.000685930252075	38.0	1.0	0.4982531070709228	Doing_crunches/v_Doing_crunches_id_QhGU5cmNZds_start_58.5_label_1.mp4
44.012691020965576	2.000255823135376	154.0	-1.0	0.5390300750732422	Swinging_at_the_playground/v_Swinging_at_the_playground_id_0T4lpt3zWlM_start_6.0_label_1.mp4
48.0124409198761	2.0007131099700928	94.0	-1.0	0.3308949470520019	Playing_bagpipes/v_Playing_bagpipes_id_rPKETHwlRAA_start_71.5_label_1.mp4
52.01210284233093	2.0336971282958984	138.0	-1.0	0.3779549598693847	Shuffleboard/v_Shuffleboard_id_dievgCWlLLs_start_55.5_label_1.mp4
60.01146602630615	2.000772953033448	122.0	-1.0	0.5158591270446777	Putting_on_makeup/v_Putting_on_makeup_id_wSm56cEA41I_start_3.5_label_1.mp4
64.0111038684845	2.05035400390625	2.0	-1.0	0.4423470497131347	Arm_wrestling/v_Arm_wrestling_id_bF8ffCMLU4Q_start_73.5_label_1.mp4
68.01076984405518	2.0005362033843994	106.0	-1.0	0.4767019748687744	Playing_piano/v_Playing_piano_id_-CoIsZDd8-8_start_25.5_label_1.mp4
72.01049494743347	2.0171470642089844	42.0	1.0	0.4283120632171631	Doing_motocross/v_Doing_motocross_id_MrhFgneEFdI_start_14.0_label_1.mp4
76.01013994216919	2.000195980072021	169.0	-1.0	0.5257329940795898	Vacuuming_floor/v_Vacuuming_floor_id_6Wv8sJMaf8I_start_75.0_label_1.mp4
84.00949597358704	2.000660896301269	158.0	-1.0	0.5739688873291016	Throwing_darts/v_Throwing_darts_id_F_nOcGTPPg8_start_15.5_label_1.mp4
88.00918984413147	2.000833034515381	111.0	-1.0	0.5182089805603027	Playing_saxophone/v_Playing_saxophone_id_aTvgi5Mh5Co_start_122.0_label_1.mp4
92.00884890556335	2.000262975692749	173.0	-1.0	0.5271689891815186	Washing_dishes/v_Washing_dishes_id_w-Z4qxYW4lU_start_40.0_label_1.mp4
96.00854682922365	2.0171639919281006	75.0	-1.0	0.5903699398040771	Laying_tile/v_Laying_tile_id_TrCjxQI2TB4_start_9.0_label_1.mp4
100.0082368850708	2.0171029567718506	108.0	-1.0	0.5747480392456055	Playing_pool/v_Playing_pool_id_-n4N1u2vWZw_start_72.5_label_1.mp4
108.0239908695221	1.9844350814819336	113.0	-1.0	0.6079249382019043	Playing_violin/v_Playing_violin_id_qi4A1phygUQ_start_170.5_label_1.mp4
112.00724005699158	2.017107963562012	40.0	1.0	0.5117509365081787	Doing_karate/v_Doing_karate_id_W93w6aw26Ls_start_111.5_label_1.mp4
116.02366089820862	2.000429153442383	121.0	-1.0	0.4161298274993896	Putting_in_contact_lenses/v_Putting_in_contact_lenses_id_RVhjgt4HcIM_start_37.5_label_1.mp4
120.00692391395567	2.0167179107666016	110.0	-1.0	0.432466983795166	Playing_rubik_cube/v_Playing_rubik_cube_id_vGHVt6jeSMU_start_11.0_label_1.mp4
124.0230770111084	2.0005760192871094	172.0	-1.0	0.4646329879760742	Walking_the_dog/v_Walking_the_dog_id_iePpI316VGE_start_46.0_label_1.mp4
132.0222909450531	1.984023094177246	98.0	-1.0	0.7300879955291748	Playing_drums/v_Playing_drums_id_biEasnA8XEU_start_49.5_label_1.mp4
136.02200603485107	2.000633001327514	175.0	1.0	0.5377581119537354	Waterskiing/v_Waterskiing_id_DerX6T8JZRg_start_12.0_label_1.mp4
140.02170395851135	2.0004069805145264	88.0	-1.0	0.4982011318206787	Painting_furniture/v_Painting_furniture_id_s4akJpViOKY_start_54.0_label_1.mp4
144.02133083343506	2.0337331295013428	144.0	1.0	0.4892170429229736	Snatch/v_Snatch_id_3d_2JLcvRVM_start_57.0_label_1.mp4
148.02105689048767	2.0005669593811035	82.0	-1.0	0.4826729297637939	Mixing_drinks/v_Mixing_drinks_id_-4ETzjncxzM_start_44.5_label_1.mp4
156.02035784721377	2.000540018081665	57.0	-1.0	0.5314841270446777	Hammer_throw/v_Hammer_throw_id_8pq64bna84M_start_3.0_label_1.mp4
160.02064085006714	2.000174045562744	21.0	-1.0	0.5317258834838867	Camel_ride/v_Camel_ride_id_wKrcwHGDDts_start_4.5_label_1.mp4
164.0197138786316	2.000667095184326	156.0	-1.0	0.5642280578613281	Tai_chi/v_Tai_chi_id_gFXSpl8hlNY_start_67.5_label_1.mp4
168.01942205429077	2.033726930618286	93.0	1.0	0.5792539119720459	Playing_badminton/v_Playing_badminton_id_hkACv6BP1O0_start_162.0_label_1.mp4
172.01912903785706	2.00062894821167	161.0	1.0	0.4368829727172851	Tug_of_war/v_Tug_of_war_id_UUzvQMRrr4Q_start_9.0_label_1.mp4
180.01895189285278	1.9996049404144287	64.0	-1.0	0.6219439506530762	Hopscotch/v_Hopscotch_id_X0ilEvzj-_Q_start_10.5_label_1.mp4
184.01812982559204	2.000474214553833	36.0	1.0	0.405923843383789	Discus_throw/v_Discus_throw_id_PEvi7SKLtvA_start_63.5_label_1.mp4
188.01780796051025	2.000372886657715	120.0	-1.0	0.462393045425415	Preparing_salad/v_Preparing_salad_id_bYD4xMgtXfk_start_115.0_label_1.mp4
192.01746797561648	2.0007638931274414	35.0	-1.0	0.518488883972168	Disc_dog/v_Disc_dog_id_PqK5x7sq8oQ_start_143.5_label_1.mp4
196.0171179771424	2.000247001647949	163.0	1.0	0.4233131408691406	Using_parallel_bars/v_Using_parallel_bars_id_Zmv4mToIs7Y_start_38.0_label_1.mp4
204.0165128707885	2.000574111938477	151.0	1.0	0.3515858650207519	Sumo/v_Sumo_id_1iQtYSS8fP0_start_10.5_label_1.mp4
208.0161709785461	2.0005948543548584	70.0	1.0	0.4399430751800537	Javelin_throw/v_Javelin_throw_id_6ZFWs2tCWKk_start_14.5_label_1.mp4
212.0157849788665	2.000675916671753	128.0	-1.0	0.4243350028991699	Rock-paper-scissors/v_Rock-paper-scissors_id_yjHtEQ6KmwA_start_45.5_label_1.mp4
216.0155029296875	2.0004091262817383	19.0	1.0	0.5846841335296631	Bungee_jumping/v_Bungee_jumping_id_XQE53CiYOE4_start_114.5_label_1.mp4
220.015154838562	2.0005199909210205	102.0	-1.0	0.4730610847473144	Playing_harmonica/v_Playing_harmonica_id_2NRw10b0XhU_start_91.0_label_1.mp4
228.014554977417	2.000278949737549	14.0	-1.0	0.5218439102172852	Breakdancing/v_Breakdancing_id_YCJzqd6Zbag_start_80.0_label_1.mp4
232.0141499042511	2.000600099563598	105.0	1.0	0.8580598831176758	Playing_lacrosse/v_Playing_lacrosse_id_oBIZ_sVhJZM_start_12.0_label_1.mp4
236.0138518810272	2.0006110668182373	86.0	-1.0	0.5944509506225586	Painting/v_Painting_id_Vj9zVd_el6o_start_45.0_label_1.mp4
240.01357293128967	2.00067400932312	89.0	1.0	0.506803035736084	Ping-pong/v_Ping-pong_id_g6HNL5kYTzg_start_169.5_label_1.mp4
244.0132110118866	2.00020694732666	165.0	-1.0	0.4836099147796631	Using_the_monkey_bar/v_Using_the_monkey_bar_id_Fnz1P56mAI0_start_35.5_label_1.mp4
252.0125479698181	2.0337510108947754	117.0	-1.0	0.4905271530151367	Polishing_shoes/v_Polishing_shoes_id_UeSwTJXWOQI_start_20.5_label_1.mp4
256.0122289657593	2.000509023666382	126.0	-1.0	0.7805099487304688	Riding_bumper_cars/v_Riding_bumper_cars_id_ERNouNqfZrI_start_111.5_label_1.mp4
260.01194190979004	2.0003321170806885	54.0	-1.0	0.5489161014556885	Getting_a_tattoo/v_Getting_a_tattoo_id_fZW6NOA54fo_start_149.0_label_1.mp4
264.0115878582001	2.0006871223449707	164.0	1.0	0.5568461418151855	Using_the_balance_beam/v_Using_the_balance_beam_id_u5Q3k6AZ-Ys_start_49.0_label_1.mp4
268.0112359523773	2.000591993331909	130.0	1.0	0.405148983001709	Rope_skipping/v_Rope_skipping_id_qPah56nqg7k_start_14.0_label_1.mp4
276.01057982444763	2.0004231929779053	73.0	1.0	0.5740151405334473	Kneeling/v_Kneeling_id_DCYz8p4zH6o_start_12.0_label_1.mp4
280.0103328227997	2.0003700256347656	116.0	-1.0	0.4862911701202392	Polishing_forniture/v_Polishing_forniture_id_NOrZMyIwcno_start_25.0_label_1.mp4
284.0099380016327	2.017179012298584	142.0	-1.0	0.6939229965209961	Smoking_a_cigarette/v_Smoking_a_cigarette_id_k9r3eRTh3C4_start_81.0_label_1.mp4
288.00962591171265	2.017035007476806	124.0	-1.0	0.9263129234313964	Rafting/v_Rafting_id_bx0lUrIsC0I_start_75.0_label_1.mp4
292.0092799663544	2.001039981842041	67.0	1.0	1.0469751358032229	Hurling/v_Hurling_id_gayK64qz4EQ_start_63.0_label_1.mp4
