onset	duration	trial_type	response	response_time	stim_file
12.01528811454773	2.089653968811035	14.0	-1.0	0.5673210620880127	Breakdancing/v_Breakdancing_id_HyYAhAhicWs_start_36.0_label_1.mp4
16.014952182769775	2.0004959106445312	21.0	-1.0	0.4994690418243408	Camel_ride/v_Camel_ride_id_8wC2qEApxSk_start_4.0_label_1.mp4
20.014716148376465	2.0007259845733643	116.0	-1.0	0.5077230930328369	Polishing_forniture/v_Polishing_forniture_id_JRg3W4xKvJI_start_104.0_label_1.mp4
24.01434111595153	2.000748872756958	132.0	-1.0	0.4360840320587158	Sailing/v_Sailing_id_J1JgKkWBqm0_start_7.0_label_1.mp4
28.01405119895935	2.051215887069702	144.0	1.0	0.4659070968627929	Snatch/v_Snatch_id_rdVyN2V2Fs0_start_94.5_label_1.mp4
36.013347148895264	2.000496864318848	13.0	-1.0	0.4851570129394531	Braiding_hair/v_Braiding_hair_id_BOONKt8Uaas_start_136.5_label_1.mp4
40.01301717758179	2.0012128353118896	142.0	-1.0	0.4928970336914062	Smoking_a_cigarette/v_Smoking_a_cigarette_id_RvLpe2hNzvM_start_46.0_label_1.mp4
44.012742042541504	2.000676155090332	111.0	-1.0	0.5258030891418457	Playing_saxophone/v_Playing_saxophone_id_W-j8fGMdUhw_start_8.5_label_1.mp4
48.01236605644226	2.0004429817199707	152.0	-1.0	0.4061720371246338	Surfing/v_Surfing_id_JDD2Uqi8Lk4_start_36.0_label_1.mp4
52.01213002204895	2.000566005706787	71.0	-1.0	0.4225130081176758	Kayaking/v_Kayaking_id_IL7hWOc4rPM_start_39.0_label_1.mp4
60.0112509727478	2.000639200210572	81.0	-1.0	0.4712660312652588	Making_an_omelette/v_Making_an_omelette_id_KWRc83DAd_I_start_126.0_label_1.mp4
64.01116800308228	2.0171360969543457	68.0	-1.0	0.5189399719238281	Ice_fishing/v_Ice_fishing_id_deCoJ8AxK9Y_start_3.5_label_1.mp4
68.01086902618408	2.000401973724365	158.0	-1.0	0.679905891418457	Throwing_darts/v_Throwing_darts_id_N0Onm3kO-N4_start_17.5_label_1.mp4
72.01045417785645	1.9999749660491943	95.0	1.0	0.3768279552459717	Playing_beach_volleyball/v_Playing_beach_volleyball_id_OhrJLD1Fo8Y_start_40.5_label_1.mp4
76.01013112068176	2.0007028579711914	129.0	-1.0	0.4325680732727051	Rollerblading/v_Rollerblading_id_owr--kvd_rw_start_10.0_label_1.mp4
84.00948905944824	2.0004689693450928	39.0	1.0	0.4732320308685303	Doing_fencing/v_Doing_fencing_id_g7vuXCMkPXk_start_22.5_label_1.mp4
88.0091941356659	2.000746011734009	147.0	1.0	0.3934190273284912	Spinning/v_Spinning_id_T9pn6WiziFY_start_64.5_label_1.mp4
92.00886797904968	2.016983985900879	161.0	1.0	0.5773069858551025	Tug_of_war/v_Tug_of_war_id_FoyRfHlcaZU_start_28.5_label_1.mp4
96.00850701332092	2.0171821117401123	48.0	-1.0	0.4976599216461181	Fixing_bicycle/v_Fixing_bicycle_id_drHvGpo3y2s_start_25.0_label_1.mp4
100.00821805000304	1.9999699592590328	90.0	-1.0	0.4031438827514648	Plastering/v_Plastering_id_X2N0etwSHV0_start_125.0_label_1.mp4
108.00767397880554	2.0005412101745605	105.0	1.0	0.5952918529510498	Playing_lacrosse/v_Playing_lacrosse_id_t98PYWeSrn0_start_105.5_label_1.mp4
112.0072250366211	2.017193078994751	53.0	-1.0	0.467008113861084	Getting_a_piercing/v_Getting_a_piercing_id_CZbe6AfRa3w_start_120.0_label_1.mp4
116.0235869884491	2.000401020050049	109.0	1.0	0.4034709930419922	Playing_racquetball/v_Playing_racquetball_id_icuhp7SA3gk_start_54.0_label_1.mp4
120.0232801437378	2.0004119873046875	79.0	-1.0	0.5557229518890381	Making_a_lemonade/v_Making_a_lemonade_id_jD-rHjkFTm4_start_94.0_label_1.mp4
124.02297306060792	2.0004169940948486	28.0	-1.0	0.4121088981628418	Cleaning_shoes/v_Cleaning_shoes_id_PfWlNm7eyww_start_24.0_label_1.mp4
132.022292137146	1.9835288524627688	155.0	-1.0	0.5097529888153076	Table_soccer/v_Table_soccer_id_ug7zRFAEn_M_start_35.0_label_1.mp4
136.02198910713196	2.000488042831421	42.0	1.0	0.3570730686187744	Doing_motocross/v_Doing_motocross_id_Nw91usu616c_start_7.0_label_1.mp4
140.0216670036316	2.000460147857666	18.0	-1.0	0.5094349384307861	Bullfighting/v_Bullfighting_id_c35yFA4q8eY_start_209.5_label_1.mp4
144.02133107185364	2.000582933425904	173.0	-1.0	0.4697551727294922	Washing_dishes/v_Washing_dishes_id_XJ33ELrbO18_start_34.5_label_1.mp4
148.02097606658936	2.000401973724365	156.0	1.0	0.5821230411529541	Tai_chi/v_Tai_chi_id_Si4MvsC3Mgo_start_124.0_label_1.mp4
156.02037811279297	2.0004448890686035	59.0	-1.0	0.0004911422729492	Hand_washing_clothes/v_Hand_washing_clothes_id_1zZrOJPRZ8I_start_47.0_label_1.mp4
160.02006816864014	2.000535011291504	118.0	-1.0	0.503108024597168	Powerbocking/v_Powerbocking_id_wme_3g7n3rs_start_17.0_label_1.mp4
164.01973509788513	2.0004169940948486	12.0	-1.0	0.5434780120849609	Blow-drying_hair/v_Blow-drying_hair_id_mHAARsZMrEE_start_3.0_label_1.mp4
168.01939511299133	2.034048080444336	4.0	1.0	0.742455005645752	BMX/v_BMX_id_VhWUaPQ7Aw4_start_28.5_label_1.mp4
172.0190670490265	2.0006320476531982	74.0	-1.0	0.6960949897766113	Knitting/v_Knitting_id_x_5uuWcjVi4_start_31.5_label_1.mp4
180.01850199699402	2.0004379749298096	168.0	1.0	0.552947998046875	Using_uneven_bars/v_Using_uneven_bars_id_eHXBpVNEKQA_start_22.5_label_1.mp4
184.01809000968933	2.000431060791016	25.0	-1.0	0.5933308601379395	Cheerleading/v_Cheerleading_id_H8saUbCaZIY_start_16.0_label_1.mp4
188.0178849697113	2.000577211380005	40.0	1.0	0.5454418659210205	Doing_karate/v_Doing_karate_id_kFzQn4ow-8I_start_44.0_label_1.mp4
192.0174720287323	2.000705003738404	72.0	-1.0	0.4177601337432861	Kite_flying/v_Kite_flying_id_k-7TYpD6HY0_start_138.5_label_1.mp4
196.0171160697937	2.000680923461914	17.0	-1.0	0.4580938816070556	Building_sandcastles/v_Building_sandcastles_id_bHWTsohLQRU_start_54.0_label_1.mp4
204.0165181159973	2.000514030456543	172.0	-1.0	0.4349679946899414	Walking_the_dog/v_Walking_the_dog_id_b3XnxNM53fc_start_42.5_label_1.mp4
208.01614713668823	2.0005218982696533	30.0	-1.0	0.5473361015319824	Cleaning_windows/v_Cleaning_windows_id_WccVn1smzvA_start_10.0_label_1.mp4
212.01585507392883	2.0002028942108154	128.0	-1.0	0.4998869895935058	Rock-paper-scissors/v_Rock-paper-scissors_id_7Mej1OuwxQY_start_99.0_label_1.mp4
216.01608896255493	2.000242233276367	107.0	1.0	0.467736005783081	Playing_polo/v_Playing_polo_id_30qgJJvBme0_start_87.5_label_1.mp4
220.0151691436768	2.0170798301696777	101.0	-1.0	0.4035248756408691	Playing_guitarra/v_Playing_guitarra_id_9NohS2HxG_M_start_69.0_label_1.mp4
228.01455211639404	2.034015893936157	15.0	-1.0	0.4356231689453125	Brushing_hair/v_Brushing_hair_id_MaZP3JYXTLk_start_23.0_label_1.mp4
232.0142271518708	2.0005760192871094	176.0	-1.0	0.5092990398406982	Waxing_skis/v_Waxing_skis_id_kgPaLHjlVRc_start_33.0_label_1.mp4
236.0138821601868	2.00068998336792	24.0	-1.0	0.5576050281524658	Carving_jack-o-lanterns/v_Carving_jack-o-lanterns_id_0lqKOvtfBPY_start_57.5_label_1.mp4
240.01356101036072	2.0007100105285645	177.0	-1.0	0.4219369888305664	Welding/v_Welding_id_G6X49zaw3ks_start_73.0_label_1.mp4
244.01321697235107	2.0005691051483154	26.0	-1.0	0.5344140529632568	Chopping_wood/v_Chopping_wood_id_h_Q_nP21vuA_start_80.0_label_1.mp4
252.0126130580902	2.0003039836883545	82.0	-1.0	0.5750789642333984	Mixing_drinks/v_Mixing_drinks_id_9iV4MrP15r0_start_38.5_label_1.mp4
256.0122489929199	2.03421401977539	73.0	1.0	0.5099611282348633	Kneeling/v_Kneeling_id_zebmO_4pfVc_start_21.0_label_1.mp4
260.0119290351868	2.000702142715454	70.0	1.0	0.5676469802856445	Javelin_throw/v_Javelin_throw_id_MGAq9-34-0M_start_5.5_label_1.mp4
264.01161408424366	2.000715970993042	126.0	-1.0	0.1760179996490478	Riding_bumper_cars/v_Riding_bumper_cars_id_vbo3ClmGygI_start_13.0_label_1.mp4
268.0113501548767	1.999928951263428	141.0	-1.0	0.4488880634307861	Slacklining/v_Slacklining_id_guO17MZbHbU_start_9.5_label_1.mp4
276.0105950832367	2.000786066055298	164.0	1.0	0.4490470886230469	Using_the_balance_beam/v_Using_the_balance_beam_id_ct2FnjqNpE8_start_57.5_label_1.mp4
280.01026701927185	2.000491142272949	112.0	1.0	0.4975650310516357	Playing_squash/v_Playing_squash_id_Dq9zdYDsVxA_start_2.5_label_1.mp4
284.00993299484253	2.000017166137696	154.0	-1.0	0.5143311023712158	Swinging_at_the_playground/v_Swinging_at_the_playground_id_j5XtCEltaRQ_start_37.0_label_1.mp4
288.00939297676086	2.000702142715454	46.0	-1.0	0.562126874923706	Drum_corps/v_Drum_corps_id_EYt7zI677QM_start_11.0_label_1.mp4
292.0092751979828	2.000687837600708	85.0	-1.0	0.4505338668823242	Paintball/v_Paintball_id_dM8VTLpaSQ0_start_3.5_label_1.mp4
