onset	duration	trial_type	response	response_time	stim_file
12.01525092124939	2.0671091079711914	105.0	1.0	0.6555750370025635	Playing_lacrosse/v_Playing_lacrosse_id_KPNwB4A6htE_start_125.0_label_1.mp4
16.014899015426636	2.000545024871826	43.0	-1.0	0.5065219402313232	Doing_nails/v_Doing_nails_id_jelx-4cFlFY_start_76.0_label_1.mp4
20.01452803611756	2.0004849433898926	66.0	1.0	0.5708320140838623	Hula_hoop/v_Hula_hoop_id_H70E1GSuEkw_start_24.0_label_1.mp4
24.014223098754883	2.000432014465332	7.0	-1.0	0.4272518157958984	Bathing_dog/v_Bathing_dog_id_RiNGE5SF-Rk_start_35.5_label_1.mp4
28.013904094696045	2.000382900238037	27.0	1.0	0.2516248226165771	Clean_and_jerk/v_Clean_and_jerk_id_x4sbY5-FzFc_start_32.0_label_1.mp4
36.01325702667236	2.000493049621582	2.0	1.0	0.4201438426971435	Arm_wrestling/v_Arm_wrestling_id_zkVMVJ7qI98_start_16.0_label_1.mp4
40.012922048568726	2.000750064849853	54.0	-1.0	0.596480131149292	Getting_a_tattoo/v_Getting_a_tattoo_id_71r1RNr2c94_start_183.0_label_1.mp4
44.01253294944763	2.000549077987671	9.0	1.0	0.4689249992370605	Beach_soccer/v_Beach_soccer_id_rvOIixBYEXo_start_57.0_label_1.mp4
48.01218891143799	2.00046706199646	150.0	-1.0	0.4852068424224853	Starting_a_campfire/v_Starting_a_campfire_id_0O-fPMKkWeo_start_193.5_label_1.mp4
52.01186299324036	2.000620126724243	42.0	1.0	1.2615480422973633	Doing_motocross/v_Doing_motocross_id_LpL-WBMY1ho_start_35.5_label_1.mp4
60.01114988327026	2.033905029296875	86.0	-1.0	0.8369522094726562	Painting/v_Painting_id_92im3frwI38_start_129.5_label_1.mp4
64.0108380317688	2.000182867050171	164.0	1.0	1.1028828620910645	Using_the_balance_beam/v_Using_the_balance_beam_id_NfZMg4bLJ80_start_113.5_label_1.mp4
68.01053094863892	2.000530958175659	116.0	-1.0	0.2550299167633056	Polishing_forniture/v_Polishing_forniture_id_ObPci84eaig_start_147.0_label_1.mp4
72.01015710830688	2.000048875808716	87.0	-1.0	0.4157588481903076	Painting_fence/v_Painting_fence_id_vn7-IrZojlI_start_157.0_label_1.mp4
76.00988006591797	2.0001800060272217	16.0	-1.0	0.327934980392456	Brushing_teeth/v_Brushing_teeth_id_-OrZGeem7u8_start_42.0_label_1.mp4
84.00914597511292	2.000525951385498	149.0	1.0	0.0005791187286376	Springboard_diving/v_Springboard_diving_id_1Qr1_-H17cg_start_137.5_label_1.mp4
88.00883293151855	2.01714301109314	72.0	-1.0	0.3839428424835205	Kite_flying/v_Kite_flying_id_gehygUd0WV8_start_11.0_label_1.mp4
92.00848889350893	2.0171830654144287	79.0	-1.0	0.3603010177612304	Making_a_lemonade/v_Making_a_lemonade_id_HfW3gMvTAo8_start_70.5_label_1.mp4
96.00814604759216	2.017242908477783	101.0	-1.0	0.4006009101867676	Playing_guitarra/v_Playing_guitarra_id_4KJD4aP90YQ_start_102.5_label_1.mp4
100.00780296325684	2.0171821117401123	75.0	-1.0	0.6729369163513184	Laying_tile/v_Laying_tile_id_5WrMtj1-r0Y_start_109.0_label_1.mp4
108.00712990760805	2.0004429817199707	29.0	-1.0	0.298443078994751	Cleaning_sink/v_Cleaning_sink_id__VThotpGq7g_start_21.5_label_1.mp4
112.02349805831908	2.0004899501800537	82.0	-1.0	0.4819819927215576	Mixing_drinks/v_Mixing_drinks_id_TNnyYAWNYIo_start_134.0_label_1.mp4
116.02315092086792	2.0004329681396484	123.0	-1.0	0.4264330863952636	Putting_on_shoes/v_Putting_on_shoes_id_SjwFCog0amE_start_33.0_label_1.mp4
120.02288103103638	2.000424861907959	135.0	-1.0	0.4026050567626953	Shaving/v_Shaving_id_zNrWEiCSibM_start_79.0_label_1.mp4
124.02248501777648	2.0004260540008545	169.0	-1.0	0.4670319557189941	Vacuuming_floor/v_Vacuuming_floor_id_LS9HeeyVIHs_start_9.0_label_1.mp4
132.02172207832336	2.0005428791046143	179.0	-1.0	0.395792007446289	Wrapping_presents/v_Wrapping_presents_id_RW0uOIg_9Ek_start_35.0_label_1.mp4
136.02138900756836	2.000607967376709	110.0	-1.0	0.4280729293823242	Playing_rubik_cube/v_Playing_rubik_cube_id_HFASoMsQtEM_start_50.0_label_1.mp4
140.0211329460144	2.000473022460937	39.0	1.0	0.4923689365386963	Doing_fencing/v_Doing_fencing_id_mMHOS2D9ZaY_start_2.0_label_1.mp4
144.020849943161	2.00051498413086	60.0	-1.0	0.5886600017547607	Hanging_wallpaper/v_Hanging_wallpaper_id_PriUXIS6bDw_start_107.0_label_1.mp4
148.0204520225525	2.00045108795166	67.0	1.0	0.277069091796875	Hurling/v_Hurling_id_hVDrHm-LrhE_start_37.0_label_1.mp4
156.0197970867157	2.000464916229248	51.0	1.0	0.381695032119751	Futsal/v_Futsal_id_OYfaL3TVji0_start_69.0_label_1.mp4
160.01944994926453	2.0008740425109863	125.0	n/a	n/a	Raking_leaves/v_Raking_leaves_id_E7m_jmMTJYs_start_14.5_label_1.mp4
164.01908898353577	2.0005221366882324	132.0	-1.0	0.4063940048217773	Sailing/v_Sailing_id_tgCMsSqfR1A_start_166.5_label_1.mp4
168.0187950134277	2.0005600452423096	55.0	-1.0	0.4386649131774902	Grooming_dog/v_Grooming_dog_id_H-OhJFSJuVU_start_15.5_label_1.mp4
172.01841807365415	2.000562906265259	34.0	-1.0	0.4710659980773926	Decorating_the_Christmas_tree/v_Decorating_the_Christmas_tree_id_qRFamkTRHTs_start_79.0_label_1.mp4
180.01777291297913	2.000437021255493	50.0	1.0	0.5118610858917236	Fun_sliding_down/v_Fun_sliding_down_id_4uE1GMYUQb8_start_18.0_label_1.mp4
184.0174369812012	2.000278949737549	3.0	-1.0	0.4960889816284179	Assembling_bicycle/v_Assembling_bicycle_id_pK4NTbK5rHM_start_47.5_label_1.mp4
188.01706409454343	2.000452995300293	15.0	-1.0	0.0804381370544433	Brushing_hair/v_Brushing_hair_id_gUaVdPbGKY4_start_15.5_label_1.mp4
192.0167400836945	2.0337610244750977	44.0	1.0	0.5196402072906494	Doing_step_aerobics/v_Doing_step_aerobics_id_x4LW4Jd1mnM_start_55.0_label_1.mp4
196.01644611358645	2.0005908012390137	177.0	-1.0	0.545159101486206	Welding/v_Welding_id_GrrMeHeplMc_start_38.0_label_1.mp4
204.0157060623169	2.000579833984375	77.0	-1.0	0.0005459785461425	Longboarding/v_Longboarding_id_dmki8So5w2E_start_119.0_label_1.mp4
208.01555395126343	2.000391960144043	130.0	1.0	0.4102368354797363	Rope_skipping/v_Rope_skipping_id_MEgmWG1n3yk_start_106.0_label_1.mp4
212.0151159763336	2.000581979751587	163.0	1.0	0.0904409885406494	Using_parallel_bars/v_Using_parallel_bars_id_8xH1mxaQRSA_start_9.0_label_1.mp4
216.0146970748901	2.000622034072876	26.0	-1.0	0.2347869873046875	Chopping_wood/v_Chopping_wood_id_vc0YxA_M_Rw_start_10.0_label_1.mp4
220.0143780708313	2.03399395942688	100.0	-1.0	0.4257760047912597	Playing_flauta/v_Playing_flauta_id_rbb24leMbYA_start_95.0_label_1.mp4
228.0136649608612	2.001086950302124	154.0	-1.0	0.0005650520324707	Swinging_at_the_playground/v_Swinging_at_the_playground_id_3idUJzXtG8E_start_37.5_label_1.mp4
232.0133409500122	2.0004560947418213	104.0	-1.0	0.7161579132080078	Playing_kickball/v_Playing_kickball_id_yccZtv63Av4_start_129.0_label_1.mp4
236.01301407814023	2.000605821609497	33.0	-1.0	0.4685049057006836	Cutting_the_grass/v_Cutting_the_grass_id_zrmWnvPnfds_start_48.5_label_1.mp4
240.0127170085907	2.000576972961426	144.0	1.0	0.0006000995635986	Snatch/v_Snatch_id_W_g1il_23OI_start_4.5_label_1.mp4
244.012305021286	2.000431060791016	143.0	-1.0	0.0005459785461425	Smoking_hookah/v_Smoking_hookah_id_3AA_jNQ7Rbo_start_33.5_label_1.mp4
252.011666059494	2.0005040168762207	23.0	-1.0	0.1178851127624511	Capoeira/v_Capoeira_id_TOYjrZqorCI_start_56.0_label_1.mp4
256.01129388809204	2.017107009887696	178.0	1.0	0.4217009544372558	Windsurfing/v_Windsurfing_id_9wHXWTin-_w_start_46.5_label_1.mp4
260.01091599464417	2.0000290870666504	56.0	-1.0	0.5111641883850098	Grooming_horse/v_Grooming_horse_id_RZptBz04LAw_start_13.5_label_1.mp4
264.01062297821045	2.0008480548858643	128.0	1.0	0.0005710124969482	Rock-paper-scissors/v_Rock-paper-scissors_id_qSAJIVmQWWE_start_34.0_label_1.mp4
268.01027607917786	2.0002238750457764	180.0	1.0	0.3597149848937988	Zumba/v_Zumba_id_pJZmEt32s58_start_47.5_label_1.mp4
276.0095989704132	2.0006821155548096	90.0	-1.0	0.3758938312530517	Plastering/v_Plastering_id_ewsAsvx2OFg_start_80.5_label_1.mp4
280.00926899909973	2.000508069992065	114.0	1.0	0.5043637752532959	Playing_water_polo/v_Playing_water_polo_id_X33G9KbkR1g_start_13.5_label_1.mp4
284.00895404815674	1.9999430179595947	124.0	1.0	0.3211550712585449	Rafting/v_Rafting_id_W_LW9I9fTFU_start_29.5_label_1.mp4
288.0085608959198	2.0171470642089844	73.0	1.0	0.4803361892700195	Kneeling/v_Kneeling_id_4AAteRnJKyk_start_27.0_label_1.mp4
292.0081820487976	2.0171420574188232	155.0	-1.0	0.2968111038208008	Table_soccer/v_Table_soccer_id_IEupzFVWqbU_start_5.0_label_1.mp4
