onset	duration	trial_type	response	response_time	stim_file
12.015167951583862	2.06732821464539	119	1.0	0.000517129898071	Preparing_pasta/v_Preparing_pasta_id_kBW0PZ01mBQ_start_112.5_label_1.mp4
16.01492404937744	2.00051593780518	57	1.0	0.136828184127808	Hammer_throw/v_Hammer_throw_id_SgN0y7uJYeE_start_9.0_label_1.mp4
20.01442909240723	2.00068998336792	83	-1.0	0.721151828765869	Mooping_floor/v_Mooping_floor_id_xLc5O854gSg_start_48.5_label_1.mp4
24.0142059326172	2.00064706802368	85	-1.0	0.785397052764893	Paintball/v_Paintball_id_YrJ71nI5fz0_start_50.0_label_1.mp4
28.0138919353485	2.03393721580505	130	1.0	0.000563859939575	Rope_skipping/v_Rope_skipping_id_C7a8ldd20VY_start_125.5_label_1.mp4
36.0132391452789	2.00042796134949	154	-1.0	0.52249813079834	Swinging_at_the_playground/v_Swinging_at_the_playground_id_1FUPcqslegI_start_26.5_label_1.mp4
40.0128309726715	2.00045108795166	13	-1.0	0.570896863937378	Braiding_hair/v_Braiding_hair_id_jqFb7qjbH5U_start_2.5_label_1.mp4
44.0124840736389	2.00024700164795	101	-1.0	0.579505920410156	Playing_guitarra/v_Playing_guitarra_id_Xpdj_UDXlNk_start_8.5_label_1.mp4
48.0123150348663	1.99992895126343	95	1.0	0.315829038619995	Playing_beach_volleyball/v_Playing_beach_volleyball_id_R92iN8tlRr8_start_1.5_label_1.mp4
52.0117630958557	2.00048494338989	53	-1.0	0.219850063323975	Getting_a_piercing/v_Getting_a_piercing_id_1v2gefnioIg_start_53.0_label_1.mp4
60.011127948761	2.00046920776367	20	-1.0	1.55646920204163	Calf_roping/v_Calf_roping_id_oGJTMDYloFU_start_16.5_label_1.mp4
64.0107400417328	2.03339505195618	29	-1.0	0.459965229034424	Cleaning_sink/v_Cleaning_sink_id_dNdwD1ucii4_start_127.0_label_1.mp4
68.0104420185089	2.00049996376038	68	-1.0	0.189157009124756	Ice_fishing/v_Ice_fishing_id_tWfuWfuV_8s_start_105.0_label_1.mp4
72.0101139545441	1.9998631477356	32	1.0	0.333978891372681	Croquet/v_Croquet_id_1PeY7u3pB6Y_start_19.0_label_1.mp4
76.0097849369049	2.01708817481995	166	1.0	0.000530004501343	Using_the_pommel_horse/v_Using_the_pommel_horse_id_6EZkrGzrP6A_start_7.0_label_1.mp4
84.0090420246124	2.0006000995636	118	1.0	0.406634092330933	Powerbocking/v_Powerbocking_id_BpM6TCNy-DQ_start_64.0_label_1.mp4
88.0254001617432	2.00042080879211	31	-1.0	1.76635408401489	Cricket/v_Cricket_id_2el3v0CVLJM_start_49.0_label_1.mp4
92.0084109306335	2.01709008216858	16	-1.0	0.390653848648071	Brushing_teeth/v_Brushing_teeth_id_0cLSqzGoLis_start_36.0_label_1.mp4
96.0080299377441	2.01713299751282	94	-1.0	0.518959999084473	Playing_bagpipes/v_Playing_bagpipes_id_xkNZCwFxFCs_start_48.0_label_1.mp4
100.007707118988	2.05060386657715	96	-1.0	0.000556945800781	Playing_blackjack/v_Playing_blackjack_id_ZmRBK01sPm0_start_63.5_label_1.mp4
108.007157087326	2.0001540184021	171	1.0	0.000580072402954	Wakeboarding/v_Wakeboarding_id_bDHddariiFY_start_4.0_label_1.mp4
112.006772994995	2.01702809333801	102	-1.0	0.000574827194214	Playing_harmonica/v_Playing_harmonica_id_RqGfyyr_DH0_start_34.0_label_1.mp4
116.006369113922	2.01719284057617	75	-1.0	0.344685792922974	Laying_tile/v_Laying_tile_id_PjfyTUdtZt4_start_115.0_label_1.mp4
120.006359100342	2.01677584648132	8	1.0	0.385015964508057	Baton_twirling/v_Baton_twirling_id_0z9Vmr3kRww_start_16.0_label_1.mp4
124.022364139557	2.00027298927307	5	-1.0	0.000619173049927	Baking_cookies/v_Baking_cookies_id_V0fk6Wq4fuI_start_47.0_label_1.mp4
132.021682977676	2.0002851486206	129	1.0	0.000550985336304	Rollerblading/v_Rollerblading_id_QNDvHq0cZQw_start_8.5_label_1.mp4
136.021326065063	2.0004289150238	17	-1.0	0.000540018081665	Building_sandcastles/v_Building_sandcastles_id_05yKwc_48Bw_start_47.0_label_1.mp4
140.021039009094	2.00039315223694	156	-1.0	0.442784070968628	Tai_chi/v_Tai_chi_id_AyOEN1CQ3wM_start_84.5_label_1.mp4
144.020658969879	2.00028204917908	55	-1.0	0.000469923019409	Grooming_dog/v_Grooming_dog_id_DIZLeRlzGkU_start_47.0_label_1.mp4
148.020343065262	2.00055503845215	122	n/a	n/a	Putting_on_makeup/v_Putting_on_makeup_id_939CNcwynd4_start_62.0_label_1.mp4
156.019633054733	2.00030708312988	24	-1.0	0.000513076782227	Carving_jack-o-lanterns/v_Carving_jack-o-lanterns_id_1hP_2N4VF8c_start_82.5_label_1.mp4
160.019294977188	2.03384399414062	123	-1.0	0.403146982192993	Putting_on_shoes/v_Putting_on_shoes_id_gqBiPrgiIrI_start_64.0_label_1.mp4
164.018998146057	2.00055885314941	138	-1.0	0.636724948883057	Shuffleboard/v_Shuffleboard_id_vFC2qNQU_v4_start_11.0_label_1.mp4
168.018628120422	2.00071883201599	106	-1.0	0.000764846801758	Playing_piano/v_Playing_piano_id_yzUufEHmDZo_start_52.0_label_1.mp4
172.018322944641	2.00044322013855	78	-1.0	0.000637054443359	Making_a_cake/v_Making_a_cake_id_ogTKwPJoS_c_start_94.0_label_1.mp4
180.017791986465	2.00011301040649	155	-1.0	0.000550031661987	Table_soccer/v_Table_soccer_id_F7sYUeeZVIU_start_55.5_label_1.mp4
184.017275094986	2.0005350112915	167	1.0	0.00065803527832	Using_the_rowing_machine/v_Using_the_rowing_machine_id_T74Xek-pDLM_start_142.0_label_1.mp4
188.01696896553	2.00040006637573	110	-1.0	0.000694036483765	Playing_rubik_cube/v_Playing_rubik_cube_id__KZATcRsP1g_start_40.0_label_1.mp4
192.016657114029	2.00056099891663	100	-1.0	0.000674962997437	Playing_flauta/v_Playing_flauta_id_-TvIpnSzGTs_start_42.5_label_1.mp4
196.016258955002	2.0005030632019	35	-1.0	0.000575065612793	Disc_dog/v_Disc_dog_id_-JsrvrVQDzo_start_12.0_label_1.mp4
204.015620946884	2.00045013427734	28	-1.0	0.000967979431152	Cleaning_shoes/v_Cleaning_shoes_id_KCIqA9hXR_E_start_106.5_label_1.mp4
208.015491008758	2.00018000602722	21	-1.0	0.536576986312866	Camel_ride/v_Camel_ride_id_pgns88vLDWo_start_15.0_label_1.mp4
212.014909029007	2.00064992904663	73	-1.0	0.528871059417725	Kneeling/v_Kneeling_id_Vt6W9Bs3ZiY_start_15.5_label_1.mp4
216.01464009285	2.00031805038452	144	1.0	0.30524206161499	Snatch/v_Snatch_id_BMU3BczTScU_start_6.0_label_1.mp4
220.01428103447	2.00044393539429	159	-1.0	0.049602031707764	Trimming_branches_or_hedges/v_Trimming_branches_or_hedges_id_IikRJNOKdvU_start_167.0_label_1.mp4
228.013581991196	2.00054717063904	51	1.0	0.250122785568237	Futsal/v_Futsal_id_10OT2k6yPkk_start_23.0_label_1.mp4
232.013242006302	2.00050401687622	107	-1.0	0.402592897415161	Playing_polo/v_Playing_polo_id_vMVhKHb013M_start_47.0_label_1.mp4
236.01290512085	2.00027585029602	30	-1.0	0.650890827178955	Cleaning_windows/v_Cleaning_windows_id_c1POhb_ypdA_start_185.0_label_1.mp4
240.012544155121	2.00047898292541	76	1.0	1.2591700553894	Long_jump/v_Long_jump_id_Haul0J8zhNM_start_16.5_label_1.mp4
244.012199163437	2.00053691864014	26	-1.0	0.059533834457397	Chopping_wood/v_Chopping_wood_id__OpeUO-JnJ0_start_175.0_label_1.mp4
252.011511087418	2.00049591064453	3	-1.0	0.000555038452148	Assembling_bicycle/v_Assembling_bicycle_id_5m6s5qqp1Ak_start_186.5_label_1.mp4
256.01118803024303	2.00067591667175	40	-1.0	0.00068998336792	Doing_karate/v_Doing_karate_id_J6FaI338gOs_start_19.5_label_1.mp4
260.010884046555	2.01704001426697	133	-1.0	0.000549077987671	Scuba_diving/v_Scuba_diving_id_PrXJHmo-vaY_start_37.0_label_1.mp4
264.010550022125	2.00061392784119	103	1.0	0.000653982162476	Playing_ice_hockey/v_Playing_ice_hockey_id_uK7PaXoZiog_start_41.5_label_1.mp4
268.010185956955	2.01713013648987	98	-1.0	0.000485897064209	Playing_drums/v_Playing_drums_id_fMoowOOm6sE_start_10.0_label_1.mp4
276.009483098984	2.00039005279541	52	-1.0	0.000670909881592	Getting_a_haircut/v_Getting_a_haircut_id_Fnb0WypHbc8_start_134.0_label_1.mp4
280.009134054184	1.99994587898254	84	-1.0	0.000777006149292	Mowing_the_lawn/v_Mowing_the_lawn_id_GlTGCA0u7_g_start_15.0_label_1.mp4
284.008810997009	2.00024795532227	11	-1.0	0.000434875488281	Belly_dance/v_Belly_dance_id_Ax_Auu1qWUo_start_56.0_label_1.mp4
288.00853395462	1.999920129776	93	1.0	0.000607967376709	Playing_badminton/v_Playing_badminton_id_FsIOPREJwQ0_start_77.5_label_1.mp4
292.008116006851	2.01712203025818	25	1.0	0.00058388710022	Cheerleading/v_Cheerleading_id_nQfG_5fQtKo_start_15.5_label_1.mp4
