onset	duration	trial_type	response	response_time	stim_file
12.01526403427124	2.0671699047088623	10.0	-1.0	0.0006129741668701	Beer_pong/v_Beer_pong_id_sXYkh96pYQU_start_197.0_label_1.mp4
16.014971017837524	2.0335559844970703	169.0	-1.0	0.0004670619964599	Vacuuming_floor/v_Vacuuming_floor_id_wYedCCygMoA_start_30.5_label_1.mp4
20.014601945877075	2.033859968185425	41.0	1.0	0.3010189533233642	Doing_kickboxing/v_Doing_kickboxing_id_tdcOq8QT0YY_start_61.5_label_1.mp4
24.01425790786743	2.0343120098114014	168.0	1.0	0.0006389617919921	Using_uneven_bars/v_Using_uneven_bars_id_3Dsx_Vvc4rU_start_91.5_label_1.mp4
28.013978004455566	2.0005040168762207	9.0	1.0	0.0005369186401367	Beach_soccer/v_Beach_soccer_id_XhCKG4deowA_start_22.0_label_1.mp4
36.01327300071716	2.0000720024108887	108.0	-1.0	0.0005249977111816	Playing_pool/v_Playing_pool_id_ouxIOseaw1Y_start_2.0_label_1.mp4
40.01290488243103	2.0331521034240723	120.0	-1.0	0.0005519390106201	Preparing_salad/v_Preparing_salad_id_w9yCirT7me4_start_65.5_label_1.mp4
44.01256203651428	2.001110792160034	99.0	1.0	0.2959980964660644	Playing_field_hockey/v_Playing_field_hockey_id_z0nhDyyjzvk_start_11.0_label_1.mp4
48.01225399971008	2.000213861465454	140.0	-1.0	0.3930530548095703	Skiing/v_Skiing_id_l7ESZOoTwM8_start_17.5_label_1.mp4
52.01189804077149	2.00055193901062	6.0	-1.0	0.3128080368041992	Ballet/v_Ballet_id_o0u4M6vppCI_start_89.5_label_1.mp4
60.01122188568115	2.0337910652160645	134.0	-1.0	0.3925149440765381	Sharpening_knives/v_Sharpening_knives_id_y_402a4dsP8_start_119.5_label_1.mp4
64.01081705093384	2.000203847885132	43.0	-1.0	0.226546049118042	Doing_nails/v_Doing_nails_id_0iDyCb2u0XA_start_13.5_label_1.mp4
68.0105049610138	1.999960899353028	91.0	-1.0	0.3388540744781494	Plataform_diving/v_Plataform_diving_id_8gPktLozpOk_start_10.5_label_1.mp4
72.01014494895935	2.0172340869903564	125.0	-1.0	0.0007150173187255	Raking_leaves/v_Raking_leaves_id_95vRwRst54w_start_31.5_label_1.mp4
76.00982403755188	2.017145872116089	152.0	1.0	0.000472068786621	Surfing/v_Surfing_id_0bHwSL9UUxA_start_98.5_label_1.mp4
84.00914001464844	2.000706911087036	65.0	1.0	0.0005378723144531	Horseback_riding/v_Horseback_riding_id_008um6OGyz4_start_16.5_label_1.mp4
88.00879788398743	2.0170490741729736	50.0	-1.0	0.0005571842193603	Fun_sliding_down/v_Fun_sliding_down_id_L452nvTyLcM_start_114.0_label_1.mp4
92.00846982002258	2.017132043838501	47.0	1.0	0.2117981910705566	Elliptical_trainer/v_Elliptical_trainer_id_9w-NkaGb588_start_10.0_label_1.mp4
96.0081548690796	2.017107009887696	90.0	-1.0	0.5242221355438232	Plastering/v_Plastering_id_aSPFQopvkN0_start_9.0_label_1.mp4
100.00775504112244	2.0172228813171387	176.0	-1.0	0.0004961490631103	Waxing_skis/v_Waxing_skis_id__MhWOCGn6GI_start_51.0_label_1.mp4
108.0074179172516	2.0003409385681152	37.0	1.0	0.0007128715515136	Dodgeball/v_Dodgeball_id_5u9Qcmlp690_start_7.5_label_1.mp4
112.02346396446228	2.0004708766937256	27.0	1.0	0.0005509853363037	Clean_and_jerk/v_Clean_and_jerk_id_tztt0Y3emo8_start_5.5_label_1.mp4
116.02316999435423	2.000527858734131	180.0	1.0	0.4858489036560058	Zumba/v_Zumba_id_Dq-FT06E3aw_start_48.5_label_1.mp4
120.0228099822998	2.000440835952759	139.0	1.0	1.0941851139068604	Skateboarding/v_Skateboarding_id_R6lzRIujI7M_start_25.0_label_1.mp4
124.022451877594	2.000586986541748	63.0	-1.0	1.1424360275268557	Hitting_a_pinata/v_Hitting_a_pinata_id_y3HJkX4Sgx8_start_36.0_label_1.mp4
132.02180790901184	1.983760118484497	18.0	-1.0	0.0004849433898925	Bullfighting/v_Bullfighting_id__9dKju_osUA_start_3.5_label_1.mp4
136.02141690254211	2.0004899501800537	117.0	-1.0	0.0005538463592529	Polishing_shoes/v_Polishing_shoes_id_yfQDyx3noOM_start_55.0_label_1.mp4
140.02105689048767	2.000476121902466	127.0	-1.0	0.399958848953247	Rock_climbing/v_Rock_climbing_id_lVHm_qD2opM_start_6.0_label_1.mp4
144.02079796791077	2.0005440711975098	12.0	-1.0	0.0005559921264648	Blow-drying_hair/v_Blow-drying_hair_id_QxlvKVXV9S0_start_102.5_label_1.mp4
148.02042603492737	2.0003159046173096	142.0	-1.0	0.0006289482116699	Smoking_a_cigarette/v_Smoking_a_cigarette_id_Wcvk7ZNqpg4_start_16.5_label_1.mp4
156.01971888542175	2.033695936203003	49.0	-1.0	0.0004429817199707	Fixing_the_roof/v_Fixing_the_roof_id__eB0cD-RwP4_start_90.5_label_1.mp4
160.01946997642517	2.0004689693450928	113.0	-1.0	0.0007932186126708	Playing_violin/v_Playing_violin_id_99ZYIECx1Vw_start_176.5_label_1.mp4
164.01910996437073	2.000396966934204	150.0	n/a	n/a	Starting_a_campfire/v_Starting_a_campfire_id_3Fbk3gqByqQ_start_1.0_label_1.mp4
168.0187509059906	2.000494956970215	23.0	1.0	0.0007600784301757	Capoeira/v_Capoeira_id_0HB-KDlBdys_start_78.0_label_1.mp4
172.01839995384216	2.0006320476531982	158.0	1.0	0.4505000114440918	Throwing_darts/v_Throwing_darts_id_nOdCOL7eAf0_start_6.0_label_1.mp4
180.01774382591248	2.000387191772461	62.0	1.0	0.0005321502685546	High_jump/v_High_jump_id_AuRdttS5Ers_start_11.0_label_1.mp4
184.01741790771484	2.0006260871887207	179.0	-1.0	0.0005879402160644	Wrapping_presents/v_Wrapping_presents_id_R7wdUXd5Grk_start_12.0_label_1.mp4
188.017107963562	2.0006260871887207	77.0	1.0	0.0005841255187988	Longboarding/v_Longboarding_id_LL6p5n1zKJU_start_38.0_label_1.mp4
192.0167269706726	2.033341884613037	143.0	-1.0	0.0006418228149414	Smoking_hookah/v_Smoking_hookah_id_tSjpKvdagn8_start_68.5_label_1.mp4
196.01635193824768	2.0007340908050537	109.0	1.0	0.0006110668182373	Playing_racquetball/v_Playing_racquetball_id_Lm4mIa-6xhY_start_176.5_label_1.mp4
204.0158839225769	2.0001139640808105	126.0	-1.0	0.0006499290466308	Riding_bumper_cars/v_Riding_bumper_cars_id_vKva4GvunO8_start_35.5_label_1.mp4
208.0153288841248	2.000517129898072	116.0	-1.0	0.7016768455505371	Polishing_forniture/v_Polishing_forniture_id_zm-3w5BjVEU_start_156.0_label_1.mp4
212.01498198509216	2.0005970001220703	39.0	1.0	0.0004758834838867	Doing_fencing/v_Doing_fencing_id_j8VYBM-c6Qc_start_34.0_label_1.mp4
216.0147218704224	2.000472068786621	69.0	-1.0	0.0006601810455322	Ironing_clothes/v_Ironing_clothes_id_6efcozfBjwo_start_14.0_label_1.mp4
220.0143859386444	2.000291109085083	105.0	1.0	0.000640869140625	Playing_lacrosse/v_Playing_lacrosse_id_oSI50szzwaE_start_5.5_label_1.mp4
228.01375102996823	2.0003318786621094	33.0	-1.0	0.0006449222564697	Cutting_the_grass/v_Cutting_the_grass_id_VKlaLscm2eA_start_1.5_label_1.mp4
232.01303791999817	2.0007359981536865	131.0	-1.0	0.0006599426269531	Running_a_marathon/v_Running_a_marathon_id_4wmB5PLW7dg_start_4.0_label_1.mp4
236.0129909515381	2.000596046447754	15.0	-1.0	0.0007340908050537	Brushing_hair/v_Brushing_hair_id_I-9cIPoi8N0_start_109.0_label_1.mp4
240.01265597343445	2.0339059829711914	60.0	1.0	0.0006358623504638	Hanging_wallpaper/v_Hanging_wallpaper_id_yyS85Jl0b-Q_start_87.0_label_1.mp4
244.0123629570008	2.000257968902588	86.0	-1.0	1.0329549312591553	Painting/v_Painting_id_2yxAGIHo4Pc_start_12.5_label_1.mp4
252.0116310119629	2.0005128383636475	42.0	1.0	0.0006930828094482	Doing_motocross/v_Doing_motocross_id_qV65FjRr3MY_start_10.0_label_1.mp4
256.0115759372711	2.0000109672546387	58.0	-1.0	0.0004348754882812	Hand_car_wash/v_Hand_car_wash_id_1huMLdvTK_A_start_149.5_label_1.mp4
260.01099586486816	1.999885082244873	1.0	1.0	1.0346238613128662	Archery/v_Archery_id__Fk4sYtK0R4_start_44.5_label_1.mp4
264.01064586639404	2.000449180603028	61.0	-1.0	0.7464148998260498	Having_an_ice_cream/v_Having_an_ice_cream_id_KMcSfY9maGM_start_1.0_label_1.mp4
268.0102758407593	1.99996018409729	74.0	-1.0	1.07532000541687	Knitting/v_Knitting_id_iHy3_fWrDQI_start_109.5_label_1.mp4
276.00964999198914	2.000469923019409	87.0	-1.0	0.0005409717559814	Painting_fence/v_Painting_fence_id_7ePH4GWsVv4_start_18.0_label_1.mp4
280.0092589855194	2.01708984375	135.0	-1.0	0.5631229877471924	Shaving/v_Shaving_id_vkKGbWVVrLw_start_206.5_label_1.mp4
284.0088999271393	1.999996900558472	46.0	-1.0	0.972567081451416	Drum_corps/v_Drum_corps_id_QtL_hHcdTGY_start_7.0_label_1.mp4
288.00891399383545	2.0168068408966064	164.0	1.0	0.0004408359527587	Using_the_balance_beam/v_Using_the_balance_beam_id_XsRRbtFKTYY_start_8.0_label_1.mp4
292.00828194618225	2.0169930458068848	44.0	1.0	0.4921958446502685	Doing_step_aerobics/v_Doing_step_aerobics_id_J13Shy6PMQc_start_10.5_label_1.mp4
