onset	duration	trial_type	response	response_time	stim_file
12.11341905593872	2.01901912689209	164.0	1.0	2.336488008499145	Using_the_balance_beam/v_Using_the_balance_beam_id_54_amyNQNuU_start_6.5_label_1.mp4
16.03513216972351	2.0138168334960938	117.0	-1.0	2.2388129234313965	Polishing_shoes/v_Polishing_shoes_id_3Guz-0qCgRc_start_162.0_label_1.mp4
20.03520917892456	2.0133628845214844	37.0	1.0	2.3747799396514893	Dodgeball/v_Dodgeball_id_oUuWE5CArh8_start_165.0_label_1.mp4
24.03571200370789	2.0126500129699707	157.0	-1.0	2.3902511596679688	Tango/v_Tango_id_sJtMKE7nQO0_start_38.5_label_1.mp4
28.033509969711304	2.014451026916504	122.0	-1.0	2.3764750957489014	Putting_on_makeup/v_Putting_on_makeup_id_PhHafXApPok_start_167.0_label_1.mp4
36.03509998321533	2.0121681690216064	130.0	1.0	1.9284660816192627	Rope_skipping/v_Rope_skipping_id_BBDi7o7KxQ8_start_46.5_label_1.mp4
40.034790992736816	2.012578010559082	172.0	-1.0	2.367233991622925	Walking_the_dog/v_Walking_the_dog_id_b0OhYMXdK84_start_32.0_label_1.mp4
44.03581213951111	2.0106658935546875	7.0	-1.0	2.4141969680786133	Bathing_dog/v_Bathing_dog_id_uUzmPV8Vgqg_start_26.5_label_1.mp4
48.03759813308716	1.9918880462646484	98.0	-1.0	2.348417043685913	Playing_drums/v_Playing_drums_id_3IiJG8RHqNg_start_14.5_label_1.mp4
52.03669810295105	2.008583068847656	149.0	1.0	2.6052780151367188	Springboard_diving/v_Springboard_diving_id_8LHLwFr8VNY_start_14.0_label_1.mp4
60.03844904899597	2.0232391357421875	46.0	-1.0	2.355562925338745	Drum_corps/v_Drum_corps_id_yhrE2yjTDsc_start_112.0_label_1.mp4
64.0365080833435	2.024723052978516	58.0	-1.0	2.4215240478515625	Hand_car_wash/v_Hand_car_wash_id_O-013IkX-Lk_start_33.5_label_1.mp4
68.03645896911621	2.0246942043304443	27.0	1.0	2.549584150314331	Clean_and_jerk/v_Clean_and_jerk_id_P9zaajrJpLI_start_20.5_label_1.mp4
72.03653502464294	2.024614095687866	57.0	1.0	2.5015461444854736	Hammer_throw/v_Hammer_throw_id_0fIC_6RkhTk_start_6.0_label_1.mp4
76.03698420524597	2.0234169960021973	33.0	-1.0	2.573091983795166	Cutting_the_grass/v_Cutting_the_grass_id_i28PTaEVYlg_start_17.0_label_1.mp4
84.0387670993805	2.0211989879608154	31.0	1.0	2.4274160861968994	Cricket/v_Cricket_id_-QkKAATOLpw_start_67.0_label_1.mp4
88.03813004493713	2.0212831497192383	38.0	1.0	2.4199490547180176	Doing_crunches/v_Doing_crunches_id_Pmj-uh4KXU0_start_76.0_label_1.mp4
92.03582620620728	2.023534774780273	3.0	-1.0	2.366264820098877	Assembling_bicycle/v_Assembling_bicycle_id_X3GhGfkKN9o_start_88.0_label_1.mp4
96.03502297401428	2.0239710807800293	142.0	-1.0	2.231088161468506	Smoking_a_cigarette/v_Smoking_a_cigarette_id_2p63KQOoOE0_start_14.0_label_1.mp4
100.03502106666564	2.023085117340088	96.0	-1.0	2.9190731048583984	Playing_blackjack/v_Playing_blackjack_id_NxeBzMU4J58_start_121.0_label_1.mp4
108.03605604171752	2.0215210914611816	131.0	1.0	2.3581371307373047	Running_a_marathon/v_Running_a_marathon_id_gXkyB8jfqdg_start_15.0_label_1.mp4
112.0369770526886	2.020867109298706	18.0	1.0	2.253131151199341	Bullfighting/v_Bullfighting_id_DQa9TdZmDYc_start_41.0_label_1.mp4
116.03405499458312	2.0228700637817383	6.0	-1.0	2.464027166366577	Ballet/v_Ballet_id_isRKmmkDXQo_start_135.5_label_1.mp4
120.03711009025574	2.0194649696350098	71.0	-1.0	2.405091047286988	Kayaking/v_Kayaking_id_lNmPHC7aHSY_start_30.0_label_1.mp4
124.03665804862976	2.019698143005371	63.0	-1.0	2.7174460887908936	Hitting_a_pinata/v_Hitting_a_pinata_id_X4NWRx5osKE_start_130.0_label_1.mp4
132.0367500782013	2.019429922103882	15.0	-1.0	2.18949294090271	Brushing_hair/v_Brushing_hair_id_F_AG29xNCKQ_start_2.0_label_1.mp4
136.03457498550415	2.02081298828125	68.0	-1.0	2.455641031265259	Ice_fishing/v_Ice_fishing_id_UDPmAwdJFTg_start_14.5_label_1.mp4
140.03330302238464	2.0215580463409424	144.0	1.0	2.6248719692230225	Snatch/v_Snatch_id_hKa9VFvMeys_start_5.0_label_1.mp4
144.03604412078855	2.018646001815796	171.0	1.0	2.654263019561768	Wakeboarding/v_Wakeboarding_id_Iii5-5Eyi2M_start_6.0_label_1.mp4
148.03485202789307	2.019526958465576	92.0	-1.0	2.6073570251464844	Playing_accordion/v_Playing_accordion_id_fmDf0OLOpmw_start_22.0_label_1.mp4
156.0347981452942	2.018887996673584	70.0	1.0	3.023360013961792	Javelin_throw/v_Javelin_throw_id_brEf1GuwnWs_start_0.5_label_1.mp4
160.038321018219	2.015484094619751	163.0	1.0	2.411951065063477	Using_parallel_bars/v_Using_parallel_bars_id_WIq_SJ24Q-I_start_22.0_label_1.mp4
164.03899812698364	2.0139870643615723	78.0	-1.0	2.443209886550904	Making_a_cake/v_Making_a_cake_id_eUSwz_-4dN8_start_64.0_label_1.mp4
168.0360450744629	2.016801118850708	23.0	1.0	2.630124092102051	Capoeira/v_Capoeira_id_qPKX_VmdRuE_start_18.5_label_1.mp4
172.03579998016355	2.016677141189575	143.0	-1.0	2.3663580417633057	Smoking_hookah/v_Smoking_hookah_id_dtR67M3B8PA_start_21.0_label_1.mp4
180.035640001297	2.015952110290528	180.0	1.0	2.5106730461120605	Zumba/v_Zumba_id_zOWkwLD8ts8_start_41.5_label_1.mp4
184.0345389842987	2.0167431831359863	94.0	-1.0	2.775832176208496	Playing_bagpipes/v_Playing_bagpipes_id_R_0_k_-V6HQ_start_62.0_label_1.mp4
188.03403997421265	2.0170202255249023	99.0	1.0	2.568218231201172	Playing_field_hockey/v_Playing_field_hockey_id_QRpFnWVV8wQ_start_0.5_label_1.mp4
192.03522205352783	2.01542592048645	125.0	-1.0	2.503056049346924	Raking_leaves/v_Raking_leaves_id_C-pIPVHiffI_start_29.5_label_1.mp4
196.03562998771667	2.0150861740112305	179.0	-1.0	3.9027161598205566	Wrapping_presents/v_Wrapping_presents_id__TFwKI14yJ0_start_31.0_label_1.mp4
204.03711819648743	2.0127439498901367	134.0	-1.0	2.5411617755889893	Sharpening_knives/v_Sharpening_knives_id_N1cqs7xn3ZM_start_85.5_label_1.mp4
208.03391098976127	2.015376091003418	82.0	n/a	n/a	Mixing_drinks/v_Mixing_drinks_id_UfYMdrPGXSk_start_39.5_label_1.mp4
212.03577709198	2.0127248764038086	97.0	-1.0	2.37450909614563	Playing_congas/v_Playing_congas_id_-Ze6Ipmsxic_start_27.5_label_1.mp4
216.0357511043549	2.0129308700561523	121.0	-1.0	2.5905630588531494	Putting_in_contact_lenses/v_Putting_in_contact_lenses_id_N-I90y2Q4UI_start_26.5_label_1.mp4
220.03461503982544	2.013514995574951	119.0	-1.0	2.103724956512451	Preparing_pasta/v_Preparing_pasta_id_O76A1jnX37A_start_96.0_label_1.mp4
228.03526711463928	2.0122969150543213	147.0	1.0	2.3991270065307617	Spinning/v_Spinning_id_4Ocnrc03Fhk_start_100.5_label_1.mp4
232.03523707389832	2.0121750831604004	59.0	-1.0	2.351138114929199	Hand_washing_clothes/v_Hand_washing_clothes_id_h_GCLMLTq3s_start_50.0_label_1.mp4
236.03530406951904	2.0116560459136963	103.0	1.0	2.455007076263428	Playing_ice_hockey/v_Playing_ice_hockey_id_zCCWwjqtwGk_start_118.5_label_1.mp4
240.0368430614472	2.009530067443848	45.0	-1.0	2.813441038131714	Drinking_coffee/v_Drinking_coffee_id_RRSt3td5_5k_start_39.0_label_1.mp4
244.03589701652527	2.010190963745117	177.0	-1.0	2.4384679794311523	Welding/v_Welding_id_G6Ejs90YYQs_start_85.0_label_1.mp4
252.0367431640625	2.025437831878662	65.0	-1.0	2.509610891342163	Horseback_riding/v_Horseback_riding_id_g2Lq-FqA9AU_start_27.5_label_1.mp4
256.0353691577912	1.9932010173797607	170.0	n/a	n/a	Volleyball/v_Volleyball_id_6r0aaY3nXA0_start_104.0_label_1.mp4
260.03438901901245	2.010650157928467	39.0	1.0	2.3360371589660645	Doing_fencing/v_Doing_fencing_id_yh_2gnv2SF4_start_118.0_label_1.mp4
264.0370330810547	2.024133920669556	129.0	-1.0	1.974364995956421	Rollerblading/v_Rollerblading_id_0m7Qn7QE_xI_start_12.5_label_1.mp4
268.03550815582275	1.9921369552612305	10.0	-1.0	2.4069809913635254	Beer_pong/v_Beer_pong_id_Ry-M6E5Gjx4_start_56.0_label_1.mp4
276.0386161804199	2.021567821502685	8.0	-1.0	2.379732847213745	Baton_twirling/v_Baton_twirling_id_F6441Yb4idI_start_146.0_label_1.mp4
280.03491616249084	2.00800895690918	72.0	-1.0	2.367499828338623	Kite_flying/v_Kite_flying_id_cpzRGAypCmI_start_47.5_label_1.mp4
284.03356313705444	2.009647846221924	153.0	1.0	2.3128349781036377	Swimming/v_Swimming_id_Pb7OViNanIg_start_44.5_label_1.mp4
288.0320551395416	2.010731935501098	76.0	1.0	2.49032998085022	Long_jump/v_Long_jump_id_twGoVVPO08Q_start_24.5_label_1.mp4
292.0364580154419	2.022397041320801	24.0	-1.0	2.109943151473999	Carving_jack-o-lanterns/v_Carving_jack-o-lanterns_id_0x6Bwd0As-Q_start_58.0_label_1.mp4
