onset	duration	trial_type	response	response_time	stim_file
12.015322923660278	2.067375898361206	167.0	1.0	0.4138369560241699	Using_the_rowing_machine/v_Using_the_rowing_machine_id_SG5KNFL_Czw_start_6.5_label_1.mp4
16.014933824539185	2.001115083694458	8.0	-1.0	0.5763521194458008	Baton_twirling/v_Baton_twirling_id_XIUJz5LoWaE_start_63.0_label_1.mp4
20.01462388038636	2.000708103179932	69.0	-1.0	0.5851519107818604	Ironing_clothes/v_Ironing_clothes_id_o-HBXq2acsM_start_24.0_label_1.mp4
24.01433300971985	2.0004467964172363	152.0	-1.0	0.465566873550415	Surfing/v_Surfing_id_5YlMNgLDvzw_start_33.5_label_1.mp4
28.013998985290527	2.0338950157165527	29.0	-1.0	0.424509048461914	Cleaning_sink/v_Cleaning_sink_id_bFCDfugpL-I_start_120.0_label_1.mp4
36.01340079307556	2.033952236175537	122.0	-1.0	0.5772879123687744	Putting_on_makeup/v_Putting_on_makeup_id_KtohFcjxL_A_start_85.5_label_1.mp4
40.013046979904175	2.0006449222564697	49.0	-1.0	0.9550058841705322	Fixing_the_roof/v_Fixing_the_roof_id_5fmYaf9KLP0_start_164.0_label_1.mp4
44.012758016586304	2.0002357959747314	72.0	-1.0	0.5474979877471924	Kite_flying/v_Kite_flying_id_PpFANsSfi4U_start_3.0_label_1.mp4
48.01241898536682	2.000428915023804	132.0	-1.0	0.3317878246307373	Sailing/v_Sailing_id_j20ep8nunmE_start_103.5_label_1.mp4
52.0121488571167	2.0004220008850098	160.0	1.0	1.163974046707153	Triple_jump/v_Triple_jump_id_jZyZ-vjd-sQ_start_7.0_label_1.mp4
60.01133179664612	2.000562191009521	155.0	-1.0	0.7087059020996094	Table_soccer/v_Table_soccer_id_YEl0qHL56gs_start_0.5_label_1.mp4
64.01115393638611	2.0004119873046875	39.0	1.0	0.2930541038513183	Doing_fencing/v_Doing_fencing_id_WbhQyYuVl9A_start_19.0_label_1.mp4
68.01076483726501	2.000017166137696	139.0	1.0	0.4137649536132812	Skateboarding/v_Skateboarding_id_w8qlooZCZ-w_start_146.0_label_1.mp4
72.0105299949646	2.0002248287200928	131.0	1.0	0.3817219734191894	Running_a_marathon/v_Running_a_marathon_id_sjiQY34whPw_start_175.0_label_1.mp4
76.01020288467407	2.000606060028076	17.0	-1.0	0.4139530658721924	Building_sandcastles/v_Building_sandcastles_id_bxhhyYk3KOQ_start_86.5_label_1.mp4
84.0095419883728	2.000540971755981	148.0	-1.0	0.5346939563751221	Spread_mulch/v_Spread_mulch_id_-Rm0yDUZHDQ_start_15.5_label_1.mp4
88.00924587249756	1.999928951263428	112.0	1.0	0.5115640163421631	Playing_squash/v_Playing_squash_id__J3V7dqjve0_start_33.0_label_1.mp4
92.00886702537537	2.0171468257904053	120.0	-1.0	0.4227809906005859	Preparing_salad/v_Preparing_salad_id_bp3IVE4Wgss_start_153.0_label_1.mp4
96.00862383842468	2.050394058227539	50.0	-1.0	0.4137749671936035	Fun_sliding_down/v_Fun_sliding_down_id_rKHiRs7WM9g_start_184.5_label_1.mp4
100.0082938671112	2.017384052276612	63.0	-1.0	0.2472040653228759	Hitting_a_pinata/v_Hitting_a_pinata_id_SzJqCmG8eao_start_3.5_label_1.mp4
108.00762796401978	2.000575065612793	38.0	-1.0	0.4967310428619385	Doing_crunches/v_Doing_crunches_id_ZvKCgtHZam0_start_3.0_label_1.mp4
112.02395486831664	2.0003199577331543	102.0	-1.0	0.5605149269104004	Playing_harmonica/v_Playing_harmonica_id_hPUFMUngQmw_start_114.5_label_1.mp4
116.00663685798644	2.0507359504699707	165.0	1.0	0.3676240444183349	Using_the_monkey_bar/v_Using_the_monkey_bar_id_AEuDmHuiMgI_start_120.5_label_1.mp4
120.0233108997345	2.033766984939575	133.0	-1.0	0.3998498916625976	Scuba_diving/v_Scuba_diving_id_qlLpBVfQCoI_start_22.0_label_1.mp4
124.02299880981444	2.000397205352783	23.0	1.0	0.4895830154418945	Capoeira/v_Capoeira_id_qzKSuTcRBu8_start_124.0_label_1.mp4
132.0223479270935	2.0004000663757324	168.0	1.0	0.410336971282959	Using_uneven_bars/v_Using_uneven_bars_id_n0VU4rX_uVY_start_40.5_label_1.mp4
136.02205395698547	2.0339930057525635	28.0	-1.0	0.0651938915252685	Cleaning_shoes/v_Cleaning_shoes_id_u2hzK9YyIXY_start_30.5_label_1.mp4
140.02168202400208	2.000573873519897	153.0	1.0	0.4190568923950195	Swimming/v_Swimming_id_EX36IRLfe_o_start_121.0_label_1.mp4
144.021381855011	2.0006799697875977	36.0	1.0	0.3391561508178711	Discus_throw/v_Discus_throw_id_iFwmJi-I5sg_start_61.0_label_1.mp4
148.02106881141663	2.000502109527588	61.0	-1.0	0.5237069129943848	Having_an_ice_cream/v_Having_an_ice_cream_id_KE-xBq71NYI_start_35.5_label_1.mp4
156.020427942276	2.0008480548858643	58.0	-1.0	0.9963500499725342	Hand_car_wash/v_Hand_car_wash_id_MNJ7ntMOcMY_start_141.5_label_1.mp4
160.02005696296692	2.0004570484161377	34.0	-1.0	0.4687130451202392	Decorating_the_Christmas_tree/v_Decorating_the_Christmas_tree_id_Lb4LaYwz1H0_start_144.5_label_1.mp4
164.01978588104248	2.00040602684021	164.0	1.0	0.541038990020752	Using_the_balance_beam/v_Using_the_balance_beam_id_lc_O87N_ecg_start_4.0_label_1.mp4
168.019455909729	2.0005369186401367	115.0	1.0	0.605262041091919	Pole_vault/v_Pole_vault_id_I2KFvNOhPB8_start_7.0_label_1.mp4
172.0191309452057	2.000086069107056	26.0	-1.0	0.5420329570770264	Chopping_wood/v_Chopping_wood_id_ABRyesNm1_I_start_100.0_label_1.mp4
180.01854991912842	2.000418901443481	156.0	1.0	0.3263139724731445	Tai_chi/v_Tai_chi_id_cnsT5jlOQ4c_start_104.5_label_1.mp4
184.01819586753845	2.000499963760376	142.0	-1.0	0.5426621437072754	Smoking_a_cigarette/v_Smoking_a_cigarette_id_-ZoPxprgiIE_start_7.0_label_1.mp4
188.01783680915835	2.0007619857788086	108.0	-1.0	0.974756956100464	Playing_pool/v_Playing_pool_id_4KHCuXN2F3I_start_169.0_label_1.mp4
192.0175848007202	2.000372171401977	67.0	1.0	0.3033051490783691	Hurling/v_Hurling_id_RdXNa-GFMmo_start_28.5_label_1.mp4
196.017247915268	2.000408887863159	99.0	-1.0	0.7837879657745361	Playing_field_hockey/v_Playing_field_hockey_id__v2tZoJsH88_start_21.5_label_1.mp4
204.01664185523987	2.0004210472106934	134.0	-1.0	0.4323501586914062	Sharpening_knives/v_Sharpening_knives_id_CrZ-MSGV2qM_start_107.5_label_1.mp4
208.01630902290344	2.000602960586548	94.0	-1.0	0.4086520671844482	Playing_bagpipes/v_Playing_bagpipes_id__-OFY10W-5Q_start_39.0_label_1.mp4
212.01598501205444	2.0003809928894043	163.0	1.0	0.5851278305053711	Using_parallel_bars/v_Using_parallel_bars_id_TpPDxX1QBa8_start_41.0_label_1.mp4
216.0159318447113	2.0001840591430664	4.0	1.0	0.9694671630859376	BMX/v_BMX_id_Sadep2CT0dc_start_101.0_label_1.mp4
220.0153470039368	2.000398874282837	151.0	1.0	0.2977387905120849	Sumo/v_Sumo_id_5oxI6e_sQA4_start_62.5_label_1.mp4
228.0147309303284	2.0007119178771973	86.0	-1.0	0.4504590034484863	Painting/v_Painting_id_YFCV6FxQcag_start_65.0_label_1.mp4
232.0144050121308	2.0004329681396484	116.0	-1.0	0.8268110752105713	Polishing_forniture/v_Polishing_forniture_id_eBTl2D1ILTA_start_129.5_label_1.mp4
236.0140697956085	2.0338621139526367	91.0	-1.0	0.8337740898132324	Plataform_diving/v_Plataform_diving_id_R5B-pOaN38I_start_159.5_label_1.mp4
240.0137758255005	2.000404119491577	126.0	-1.0	0.7554848194122314	Riding_bumper_cars/v_Riding_bumper_cars_id_7QAkBYxTqtc_start_2.0_label_1.mp4
244.0134289264679	2.0011520385742188	128.0	-1.0	0.795098066329956	Rock-paper-scissors/v_Rock-paper-scissors_id_mC4st9elA-0_start_12.0_label_1.mp4
252.01279091835025	2.000499963760376	129.0	-1.0	0.6205220222473145	Rollerblading/v_Rollerblading_id_O49A8pTuyJ4_start_45.0_label_1.mp4
256.01248788833607	2.000356912612915	173.0	-1.0	0.380854845046997	Washing_dishes/v_Washing_dishes_id_MNWAsG34jrE_start_45.0_label_1.mp4
260.0118470191956	2.033928871154785	3.0	-1.0	0.4682362079620361	Assembling_bicycle/v_Assembling_bicycle_id_gHFvELjrg0w_start_22.0_label_1.mp4
264.01182293891907	2.0005218982696533	90.0	-1.0	0.8855020999908447	Plastering/v_Plastering_id_6LtiKBfzu8A_start_101.5_label_1.mp4
268.0115079879761	2.0003650188446045	81.0	-1.0	0.5018198490142822	Making_an_omelette/v_Making_an_omelette_id_nhw1vP6CEKs_start_62.0_label_1.mp4
276.0108549594879	2.000326871871948	71.0	1.0	0.3586499691009521	Kayaking/v_Kayaking_id_8qJ55TJWmn0_start_43.0_label_1.mp4
280.0105519294739	2.0009028911590576	78.0	-1.0	0.5267717838287354	Making_a_cake/v_Making_a_cake_id__2riCW8rBSQ_start_62.5_label_1.mp4
284.0102388858795	2.000383138656616	130.0	-1.0	0.6792840957641602	Rope_skipping/v_Rope_skipping_id_ORcQpMrCLTI_start_50.5_label_1.mp4
288.00972390174866	2.050679922103882	51.0	1.0	1.357676982879639	Futsal/v_Futsal_id_N1WMOmnp-yg_start_20.5_label_1.mp4
292.00967502593994	2.0005688667297363	77.0	1.0	0.4238231182098388	Longboarding/v_Longboarding_id__kSK4gpeH8U_start_39.0_label_1.mp4
