onset	duration	trial_type	response	response_time	stim_file
12.10739803314209	2.008932113647461	122.0	-1.0	2.68086314201355	Putting_on_makeup/v_Putting_on_makeup_id_opVM5W0Vne4_start_155.5_label_1.mp4
16.034171104431152	2.0311999320983887	128.0	-1.0	2.617979049682617	Rock-paper-scissors/v_Rock-paper-scissors_id_Vf1uE7haYd8_start_34.0_label_1.mp4
20.0386769771576	2.0091640949249268	151.0	1.0	2.46948504447937	Sumo/v_Sumo_id_XKUZ-wYrLxM_start_94.0_label_1.mp4
24.033080101013184	2.0155038833618164	93.0	1.0	2.3871450424194336	Playing_badminton/v_Playing_badminton_id_rpNFb6-tqDo_start_32.0_label_1.mp4
28.035091161727905	2.01259994506836	17.0	n/a	n/a	Building_sandcastles/v_Building_sandcastles_id_AeUOth2X2Cs_start_42.5_label_1.mp4
36.03593611717224	2.01139497756958	71.0	1.0	2.40822696685791	Kayaking/v_Kayaking_id_5wA1pHRj6m8_start_18.5_label_1.mp4
40.037590980529785	2.0087461471557617	166.0	1.0	2.374643087387085	Using_the_pommel_horse/v_Using_the_pommel_horse_id_GlMx2qQDfW4_start_40.0_label_1.mp4
44.033451080322266	2.0127511024475098	133.0	-1.0	2.402801036834717	Scuba_diving/v_Scuba_diving_id_DgiemNB0ilU_start_59.5_label_1.mp4
48.0355441570282	1.9938230514526367	94.0	-1.0	2.5926549434661865	Playing_bagpipes/v_Playing_bagpipes_id_Cw31aGbzOxA_start_6.5_label_1.mp4
52.03925108909607	2.023031949996948	87.0	-1.0	2.4129559993743896	Painting_fence/v_Painting_fence_id_pvKXCykFrXE_start_29.0_label_1.mp4
60.03556609153748	2.009406089782715	108.0	1.0	2.464762926101685	Playing_pool/v_Playing_pool_id_0KcCyJ_jwmU_start_19.0_label_1.mp4
64.03669214248657	2.007416009902954	21.0	-1.0	2.4875850677490234	Camel_ride/v_Camel_ride_id_SI4IcYECoYI_start_27.5_label_1.mp4
68.03753900527954	2.023616075515747	98.0	-1.0	2.454771041870117	Playing_drums/v_Playing_drums_id_Q0m-lrPr6jk_start_6.0_label_1.mp4
72.03512501716614	2.025474071502685	147.0	1.0	2.4251129627227783	Spinning/v_Spinning_id_uv1vMgpHtzM_start_53.5_label_1.mp4
76.03355598449707	2.0101001262664795	169.0	1.0	2.434712171554565	Vacuuming_floor/v_Vacuuming_floor_id_GevTUk756-8_start_18.0_label_1.mp4
84.035001039505	2.007866144180298	127.0	1.0	2.361307144165039	Rock_climbing/v_Rock_climbing_id_A5IMK_b6MYI_start_16.5_label_1.mp4
88.03753900527954	2.0218281745910645	19.0	1.0	2.6867032051086426	Bungee_jumping/v_Bungee_jumping_id_tv63xdJqbkM_start_116.5_label_1.mp4
92.0382239818573	2.0210111141204834	82.0	-1.0	2.58205509185791	Mixing_drinks/v_Mixing_drinks_id_YnuP-5Mumfw_start_19.0_label_1.mp4
96.03726410865784	2.021169900894165	76.0	1.0	2.3750619888305664	Long_jump/v_Long_jump_id_wi-tDpjdLVg_start_13.5_label_1.mp4
100.03534317016602	2.022943019866944	67.0	1.0	2.409040927886963	Hurling/v_Hurling_id_Vo7q6YLG0Q8_start_0.5_label_1.mp4
108.03673720359802	2.0208659172058105	22.0	-1.0	2.6475648880004883	Canoeing/v_Canoeing_id_vBvZ93erfkI_start_91.0_label_1.mp4
112.03428602218628	2.0228841304779053	53.0	-1.0	2.5940401554107666	Getting_a_piercing/v_Getting_a_piercing_id_aKPVOmh9EZw_start_35.0_label_1.mp4
116.03418397903442	2.02279019355774	180.0	1.0	2.4822020530700684	Zumba/v_Zumba_id_PSmH8Yj0-Vg_start_7.5_label_1.mp4
120.0354220867157	2.021204948425293	177.0	-1.0	2.400887966156006	Welding/v_Welding_id_v8AFA2C82pI_start_33.5_label_1.mp4
124.03438210487366	2.02203106880188	101.0	-1.0	2.537877082824707	Playing_guitarra/v_Playing_guitarra_id_UZN_zzcjVkI_start_6.0_label_1.mp4
132.03588318824768	1.952863931655884	1.0	1.0	2.3284130096435547	Archery/v_Archery_id_B9VBHv5VLWk_start_49.0_label_1.mp4
136.03378701210022	2.0214991569519043	29.0	-1.0	2.450587034225464	Cleaning_sink/v_Cleaning_sink_id_AryBXLVPRMQ_start_15.0_label_1.mp4
140.03391408920288	2.0209031105041504	126.0	-1.0	2.586493968963623	Riding_bumper_cars/v_Riding_bumper_cars_id_qvVrSyhPPQ0_start_28.0_label_1.mp4
144.03395009040833	2.0206849575042725	33.0	1.0	2.5304999351501465	Cutting_the_grass/v_Cutting_the_grass_id_wUawuBrkcq8_start_68.5_label_1.mp4
148.03474497795105	2.0195701122283936	113.0	-1.0	2.417620182037353	Playing_violin/v_Playing_violin_id_qw17LdbDU04_start_107.0_label_1.mp4
156.03649020195007	2.017058849334717	159.0	-1.0	2.319916009902954	Trimming_branches_or_hedges/v_Trimming_branches_or_hedges_id_8czgTMGOxcs_start_49.0_label_1.mp4
160.03653597831726	2.016610145568848	152.0	1.0	2.423868179321289	Surfing/v_Surfing_id_oq0UYCbIcDs_start_14.0_label_1.mp4
164.03487706184387	2.018317937850952	73.0	1.0	2.64152193069458	Kneeling/v_Kneeling_id_gPspArcxRxc_start_4.5_label_1.mp4
168.03520607948303	2.0173590183258057	121.0	-1.0	2.5852210521698	Putting_in_contact_lenses/v_Putting_in_contact_lenses_id_pE9hs7WCdpA_start_47.0_label_1.mp4
172.03903913497925	2.013185977935791	95.0	1.0	2.493356943130493	Playing_beach_volleyball/v_Playing_beach_volleyball_id_vQEFKoa_fuk_start_34.5_label_1.mp4
180.03755497932434	2.0145671367645264	63.0	-1.0	2.398883104324341	Hitting_a_pinata/v_Hitting_a_pinata_id_Vndl2OW-oKk_start_42.5_label_1.mp4
184.03578114509585	2.0155558586120605	129.0	1.0	2.4808709621429443	Rollerblading/v_Rollerblading_id_NNJNty66DoU_start_19.0_label_1.mp4
188.03890299797052	2.0119001865386963	89.0	1.0	2.47747802734375	Ping-pong/v_Ping-pong_id_OL6ZrRHtZqU_start_28.5_label_1.mp4
192.035786151886	2.01487684249878	135.0	-1.0	2.440626859664917	Shaving/v_Shaving_id_Kw1NUqjcLRk_start_133.0_label_1.mp4
196.03497219085693	2.014878988265991	155.0	1.0	2.505551815032959	Table_soccer/v_Table_soccer_id__dMTrJVVXsc_start_6.0_label_1.mp4
204.04605317115784	2.020150899887085	6.0	1.0	2.366499900817871	Ballet/v_Ballet_id_BXEQD0G3b7Y_start_68.0_label_1.mp4
208.0343182086945	2.015052795410156	35.0	1.0	2.410141944885254	Disc_dog/v_Disc_dog_id_KknL0PtyCk0_start_7.0_label_1.mp4
212.0355331897736	2.013302803039551	26.0	-1.0	2.504908800125122	Chopping_wood/v_Chopping_wood_id_ueIB0h4SzHc_start_135.0_label_1.mp4
216.0355851650238	2.012908935546875	143.0	-1.0	2.632894992828369	Smoking_hookah/v_Smoking_hookah_id_YbhTX3kJ6UY_start_91.5_label_1.mp4
220.03798699378967	2.010287046432495	48.0	-1.0	2.5185132026672363	Fixing_bicycle/v_Fixing_bicycle_id_ArdI5yY3CTA_start_46.0_label_1.mp4
228.03689002990723	2.010826110839844	20.0	1.0	2.359588146209717	Calf_roping/v_Calf_roping_id_mdcb-cAiiGo_start_26.0_label_1.mp4
232.0371642112732	1.993278980255127	148.0	1.0	2.3513338565826416	Spread_mulch/v_Spread_mulch_id_uFMlVrTUoR8_start_23.0_label_1.mp4
236.03606820106504	1.994093894958496	172.0	-1.0	2.424468994140625	Walking_the_dog/v_Walking_the_dog_id_vEKipzOgiuA_start_24.0_label_1.mp4
240.03547310829163	2.0277109146118164	27.0	1.0	2.4010589122772217	Clean_and_jerk/v_Clean_and_jerk_id_QuO-tCRKf70_start_7.5_label_1.mp4
244.03362011909485	2.012623071670532	31.0	1.0	2.418992042541504	Cricket/v_Cricket_id_jWLKgjpFgDM_start_23.0_label_1.mp4
252.03933215141296	2.022965908050537	173.0	-1.0	2.4052748680114746	Washing_dishes/v_Washing_dishes_id_gRN1SmGGoqg_start_17.5_label_1.mp4
256.0376000404358	2.024165153503418	106.0	-1.0	2.4629509449005127	Playing_piano/v_Playing_piano_id_jVBgC9A4zhU_start_4.0_label_1.mp4
260.03889513015747	2.02266001701355	168.0	1.0	2.349653959274292	Using_uneven_bars/v_Using_uneven_bars_id_GAlReEK7W_0_start_185.0_label_1.mp4
264.03558802604675	1.9920539855957031	179.0	1.0	2.2809500694274902	Wrapping_presents/v_Wrapping_presents_id_kLa4eVMhMpY_start_16.0_label_1.mp4
268.0335919857025	2.0271711349487305	39.0	1.0	1.9772231578826904	Doing_fencing/v_Doing_fencing_id_B9atfwrXJp0_start_6.0_label_1.mp4
276.03904604911804	2.021079063415528	43.0	-1.0	2.3975300788879395	Doing_nails/v_Doing_nails_id_nMTyJxJIZUs_start_36.5_label_1.mp4
280.0344631671905	2.008070945739746	125.0	1.0	2.386245012283325	Raking_leaves/v_Raking_leaves_id_tpFvb4_rfAA_start_17.5_label_1.mp4
284.03715109825134	2.022221088409424	120.0	-1.0	2.639533042907715	Preparing_salad/v_Preparing_salad_id_zY2Pxew2gjM_start_34.5_label_1.mp4
288.03589510917664	2.0230579376220703	18.0	-1.0	2.5607359409332275	Bullfighting/v_Bullfighting_id_C-Qe7DSods4_start_49.5_label_1.mp4
292.0376071929932	2.021134853363037	75.0	-1.0	2.5830078125	Laying_tile/v_Laying_tile_id_af3HYcHIevM_start_13.0_label_1.mp4
