onset	duration	trial_type	response	response_time	stim_file
12.111183166503906	2.0210039615631104	78.0	-1.0	2.465447902679444	Making_a_cake/v_Making_a_cake_id_ZlcY3EhqdIs_start_105.0_label_1.mp4
16.034820079803467	2.014008045196533	150.0	-1.0	2.4698150157928467	Starting_a_campfire/v_Starting_a_campfire_id_QYegqdhtchE_start_147.0_label_1.mp4
20.03642702102661	2.011763095855713	54.0	1.0	2.404189109802246	Getting_a_tattoo/v_Getting_a_tattoo_id_T-5Z1JTHyv8_start_6.0_label_1.mp4
24.035805225372314	2.012204885482788	165.0	1.0	2.4447898864746094	Using_the_monkey_bar/v_Using_the_monkey_bar_id_yqtfOuiAgh4_start_41.0_label_1.mp4
28.03568220138549	2.0120348930358887	115.0	1.0	2.252931833267212	Pole_vault/v_Pole_vault_id_70_RJH0Q8UE_start_10.5_label_1.mp4
36.03918719291687	2.024521827697754	42.0	1.0	2.385483980178833	Doing_motocross/v_Doing_motocross_id_yTvO-gKq2J4_start_2.0_label_1.mp4
40.03624510765076	2.009954929351806	85.0	-1.0	2.444417953491211	Paintball/v_Paintball_id_661GWKCoteM_start_34.5_label_1.mp4
44.03659200668335	1.8603661060333248	119.0	-1.0	2.292074203491211	Preparing_pasta/v_Preparing_pasta_id_9gCLVQaxvzU_start_57.5_label_1.mp4
48.03833818435669	2.024155855178833	46.0	1.0	2.4583239555358887	Drum_corps/v_Drum_corps_id_Tm3dquc9SNs_start_41.0_label_1.mp4
52.03592205047608	1.9931020736694336	118.0	-1.0	2.380701065063477	Powerbocking/v_Powerbocking_id_lBX6sXcXmvU_start_76.5_label_1.mp4
60.03930115699768	2.022352933883667	132.0	-1.0	2.3774750232696533	Sailing/v_Sailing_id_42xZHtKwv_I_start_78.5_label_1.mp4
64.03762006759644	2.006575107574463	102.0	-1.0	2.491061925888061	Playing_harmonica/v_Playing_harmonica_id_Sfufv7i2MHc_start_11.0_label_1.mp4
68.039959192276	2.021025896072388	130.0	-1.0	2.4487218856811523	Rope_skipping/v_Rope_skipping_id_wuFWA7vSGGE_start_94.0_label_1.mp4
72.04113817214966	2.019526958465576	163.0	-1.0	2.4636688232421875	Using_parallel_bars/v_Using_parallel_bars_id_TkuVBziaRgU_start_61.5_label_1.mp4
76.04122519493103	2.018983840942383	171.0	1.0	2.359614849090576	Wakeboarding/v_Wakeboarding_id_6I6g0AsROts_start_92.0_label_1.mp4
84.04139518737793	2.0183358192443848	92.0	-1.0	2.3833909034729004	Playing_accordion/v_Playing_accordion_id_8tKCSpw5e4c_start_96.0_label_1.mp4
88.03603219985962	2.0232479572296143	3.0	-1.0	2.4768168926239014	Assembling_bicycle/v_Assembling_bicycle_id_qNN0QS896LE_start_32.0_label_1.mp4
92.03498220443726	2.0239078998565674	160.0	1.0	2.4858620166778564	Triple_jump/v_Triple_jump_id_fTHRkC_yuB4_start_36.5_label_1.mp4
96.03504610061646	2.023607015609741	77.0	-1.0	2.445733070373535	Longboarding/v_Longboarding_id_TM1jBLkiVNE_start_83.5_label_1.mp4
100.03518915176392	2.02316689491272	65.0	-1.0	2.389561891555786	Horseback_riding/v_Horseback_riding_id_lgqH0gLvGdQ_start_16.0_label_1.mp4
108.03688406944276	1.2063610553741455	112.0	-1.0	1.7799229621887207	Playing_squash/v_Playing_squash_id_12qKcakc03Y_start_47.5_label_1.mp4
112.03716802597046	2.0202369689941406	167.0	1.0	2.475605010986328	Using_the_rowing_machine/v_Using_the_rowing_machine_id_W4CGORYiU4Q_start_32.5_label_1.mp4
116.03480815887453	2.022135972976685	134.0	-1.0	2.557997941970825	Sharpening_knives/v_Sharpening_knives_id_sFgcAyiPLQs_start_65.5_label_1.mp4
120.03892517089844	2.017338991165161	16.0	1.0	2.529888868331909	Brushing_teeth/v_Brushing_teeth_id_HVAe1INZ-Ec_start_9.5_label_1.mp4
124.03421020507812	2.022005796432495	144.0	1.0	2.694650888442993	Snatch/v_Snatch_id_jIVQ5KXlPPU_start_64.0_label_1.mp4
132.03535318374634	2.0202999114990234	51.0	1.0	2.437592029571533	Futsal/v_Futsal_id_dS8kx_at5dw_start_63.0_label_1.mp4
136.03674602508545	2.018526077270508	124.0	1.0	2.56409215927124	Rafting/v_Rafting_id_2DAwe8drT_8_start_13.0_label_1.mp4
140.03562712669373	2.0194668769836426	114.0	1.0	2.437231063842773	Playing_water_polo/v_Playing_water_polo_id_CcKK2UPkHBQ_start_87.5_label_1.mp4
144.03696417808533	2.017648935317993	68.0	-1.0	2.371956825256348	Ice_fishing/v_Ice_fishing_id_gD3HzCgUvH8_start_21.0_label_1.mp4
148.04309010505676	2.0112760066986084	49.0	n/a	n/a	Fixing_the_roof/v_Fixing_the_roof_id_fAYDYqnA-e0_start_50.0_label_1.mp4
156.0388970375061	2.0146820545196533	34.0	-1.0	2.3860020637512207	Decorating_the_Christmas_tree/v_Decorating_the_Christmas_tree_id_GjJPIi3Oi-M_start_22.0_label_1.mp4
160.038556098938	2.0148301124572754	69.0	-1.0	2.3863821029663086	Ironing_clothes/v_Ironing_clothes_id_clENhCP_-ww_start_5.5_label_1.mp4
164.0384910106659	2.014400005340576	5.0	n/a	n/a	Baking_cookies/v_Baking_cookies_id_vB9AqQMylV8_start_45.5_label_1.mp4
168.03530716896057	2.017240047454834	59.0	-1.0	2.3896238803863525	Hand_washing_clothes/v_Hand_washing_clothes_id_HoVbjcKPGfw_start_52.5_label_1.mp4
172.0383460521698	2.013888120651245	40.0	-1.0	2.138646125793457	Doing_karate/v_Doing_karate_id_1Qq5uCMxbWs_start_30.0_label_1.mp4
180.03891706466675	2.012563943862915	140.0	1.0	2.3460681438446045	Skiing/v_Skiing_id_HZUGGXyPIoM_start_134.0_label_1.mp4
184.03697299957275	2.014475107192993	162.0	1.0	2.555986166000366	Tumbling/v_Tumbling_id_YtZiDM5YtjU_start_46.0_label_1.mp4
188.03707909584045	2.01384711265564	146.0	1.0	2.53996205329895	Snowboarding/v_Snowboarding_id__Ej3E7_AjdA_start_38.0_label_1.mp4
192.0378890037537	2.0126700401306152	58.0	-1.0	2.44310998916626	Hand_car_wash/v_Hand_car_wash_id_MrJCX0wNwCg_start_27.0_label_1.mp4
196.0381660461425	2.011898994445801	123.0	-1.0	2.5228171348571777	Putting_on_shoes/v_Putting_on_shoes_id_BtNWN4cmAHE_start_10.0_label_1.mp4
204.0384950637817	2.0111241340637207	141.0	-1.0	2.3544600009918213	Slacklining/v_Slacklining_id_QxPboQQcwpo_start_2.0_label_1.mp4
208.0389311313629	2.0102288722991943	81.0	-1.0	2.490010976791382	Making_an_omelette/v_Making_an_omelette_id_xs5uA54jPb0_start_63.5_label_1.mp4
212.0353782176972	2.0135278701782227	52.0	-1.0	2.4615678787231445	Getting_a_haircut/v_Getting_a_haircut_id_ogj7IOHnWyQ_start_7.0_label_1.mp4
216.037497997284	1.994185209274292	61.0	-1.0	2.4514780044555664	Having_an_ice_cream/v_Having_an_ice_cream_id_76ogGlr3tjM_start_53.5_label_1.mp4
220.03670716285703	1.9949638843536377	25.0	-1.0	2.516324043273926	Cheerleading/v_Cheerleading_id_Lw5rHqWQHEU_start_15.0_label_1.mp4
228.03635501861567	2.011174201965332	60.0	1.0	2.340639114379883	Hanging_wallpaper/v_Hanging_wallpaper_id_uN0-dR6TpzE_start_8.0_label_1.mp4
232.03299713134768	2.014149904251098	91.0	1.0	2.4399890899658203	Plataform_diving/v_Plataform_diving_id_g55wiaFiEnw_start_1.5_label_1.mp4
236.0349700450897	2.012012958526612	90.0	-1.0	2.382025957107544	Plastering/v_Plastering_id_ljeF5VJ1f48_start_49.5_label_1.mp4
240.03656220436096	2.026589870452881	24.0	-1.0	2.452389001846313	Carving_jack-o-lanterns/v_Carving_jack-o-lanterns_id_W8MVJJ5dffI_start_88.5_label_1.mp4
244.0405371189117	2.022202014923096	145.0	-1.0	2.424561023712158	Snow_tubing/v_Snow_tubing_id_-6XB_NX3MD0_start_8.0_label_1.mp4
252.0384151935577	2.0236918926239014	157.0	1.0	2.4106459617614746	Tango/v_Tango_id_7I_9nQyEkQk_start_25.0_label_1.mp4
256.0354239940644	2.0093541145324707	131.0	1.0	2.6216390132904053	Running_a_marathon/v_Running_a_marathon_id_N_7rBSx-Wvk_start_139.5_label_1.mp4
260.03805708885204	2.0233371257781982	109.0	1.0	2.394990921020508	Playing_racquetball/v_Playing_racquetball_id_AWemMLwzyAE_start_2.5_label_1.mp4
264.0395770072937	2.0214931964874268	149.0	1.0	2.5854032039642334	Springboard_diving/v_Springboard_diving_id_3SjI0KLEf4c_start_13.0_label_1.mp4
268.03410506248474	1.993345022201538	72.0	-1.0	2.4950170516967773	Kite_flying/v_Kite_flying_id_8BFMYrBeAvw_start_68.5_label_1.mp4
276.0373091697693	2.022789001464844	117.0	-1.0	2.3798060417175293	Polishing_shoes/v_Polishing_shoes_id_R__sjd0GnQ0_start_34.0_label_1.mp4
280.0375530719757	2.0222411155700684	66.0	1.0	2.4275131225585938	Hula_hoop/v_Hula_hoop_id_c-xIrC-NFlo_start_46.5_label_1.mp4
284.0400171279907	2.019393920898437	41.0	1.0	2.489068031311035	Doing_kickboxing/v_Doing_kickboxing_id_6ikuPBkTKUA_start_53.5_label_1.mp4
288.0356011390686	2.023458957672119	164.0	1.0	2.4854540824890137	Using_the_balance_beam/v_Using_the_balance_beam_id__9feFrVs1EQ_start_2.5_label_1.mp4
292.0376720428467	2.020848035812378	176.0	-1.0	2.4034080505371094	Waxing_skis/v_Waxing_skis_id_lO4ng8bV3b4_start_29.0_label_1.mp4
