onset	duration	trial_type	response	response_time	stim_file
12.108835935592651	2.0071680545806885	7.0	-1.0	2.4562909603118896	Bathing_dog/v_Bathing_dog_id_LMo7vunASAA_start_114.0_label_1.mp4
16.03587293624878	2.012845039367676	25.0	1.0	2.537242889404297	Cheerleading/v_Cheerleading_id_biHYKq-1hto_start_71.0_label_1.mp4
20.037946939468384	2.010300874710083	9.0	1.0	2.5191879272460938	Beach_soccer/v_Beach_soccer_id_sLvRqyo_ULg_start_83.5_label_1.mp4
24.035485982894897	1.995857000350952	54.0	-1.0	2.54567289352417	Getting_a_tattoo/v_Getting_a_tattoo_id_SPYMiD0YiUY_start_26.0_label_1.mp4
28.027671813964844	2.020188093185425	84.0	-1.0	2.497488021850586	Mowing_the_lawn/v_Mowing_the_lawn_id_AOugpYXnWFk_start_45.0_label_1.mp4
36.035852909088135	2.011054039001465	169.0	-1.0	2.4893410205841064	Vacuuming_floor/v_Vacuuming_floor_id_j7hKoRx449Q_start_16.5_label_1.mp4
40.03586483001709	2.010266065597534	171.0	1.0	2.79341197013855	Wakeboarding/v_Wakeboarding_id_2vfRYw7G0GE_start_50.0_label_1.mp4
44.03804183006287	2.024925947189331	124.0	1.0	2.503167152404785	Rafting/v_Rafting_id_uHsrfKvx8UE_start_39.5_label_1.mp4
48.03394079208374	2.012221097946167	170.0	1.0	2.627281188964844	Volleyball/v_Volleyball_id_pphRmLpJoKk_start_12.0_label_1.mp4
52.03774380683899	2.024543046951294	57.0	1.0	2.46353816986084	Hammer_throw/v_Hammer_throw_id_HDpzNhK-mwM_start_42.5_label_1.mp4
60.03908085823059	2.0224709510803223	14.0	-1.0	2.7021291255950928	Breakdancing/v_Breakdancing_id_UmLkshQSK6U_start_84.0_label_1.mp4
64.0379569530487	2.023736000061035	81.0	-1.0	2.559345960617065	Making_an_omelette/v_Making_an_omelette_id_tVgKccixIhQ_start_92.5_label_1.mp4
68.03793382644653	2.023014068603516	101.0	-1.0	2.527362108230591	Playing_guitarra/v_Playing_guitarra_id_N8iIZfyYRsU_start_4.0_label_1.mp4
72.03259086608887	2.010936975479126	58.0	-1.0	2.1326680183410645	Hand_car_wash/v_Hand_car_wash_id_N5l13LqNMB0_start_17.0_label_1.mp4
76.03682780265808	2.023487091064453	153.0	-1.0	3.0164310932159424	Swimming/v_Swimming_id_zwVKAVDmgac_start_29.0_label_1.mp4
84.0396409034729	2.019911050796509	27.0	1.0	0.8869330883026123	Clean_and_jerk/v_Clean_and_jerk_id_xLUJUjAfHlk_start_13.5_label_1.mp4
88.03152179718018	2.027839183807373	69.0	-1.0	2.54984712600708	Ironing_clothes/v_Ironing_clothes_id_mSrasFMGeW4_start_93.0_label_1.mp4
92.03650379180908	2.022755146026612	88.0	1.0	2.352789163589477	Painting_furniture/v_Painting_furniture_id_EQUiT0wLTr8_start_112.0_label_1.mp4
96.03337287902832	2.0082249641418457	136.0	1.0	2.42787504196167	Shot_put/v_Shot_put_id_SgOZ_KvoHk4_start_32.0_label_1.mp4
100.03309988975523	1.991750955581665	3.0	-1.0	2.7962839603424072	Assembling_bicycle/v_Assembling_bicycle_id_9hq6SC4GYg8_start_6.0_label_1.mp4
108.03604578971864	2.0211501121521	85.0	1.0	2.5053579807281494	Paintball/v_Paintball_id_ao6HhUtYH60_start_214.0_label_1.mp4
112.03813695907591	2.0191359519958496	95.0	1.0	2.391247034072876	Playing_beach_volleyball/v_Playing_beach_volleyball_id_6ZzXEApyn-U_start_40.5_label_1.mp4
116.03497195243835	2.0219860076904297	38.0	1.0	2.450328826904297	Doing_crunches/v_Doing_crunches_id_hLzHIuo5jhw_start_35.5_label_1.mp4
120.0385148525238	2.0182271003723145	155.0	1.0	2.494843006134033	Table_soccer/v_Table_soccer_id_5-sOmsR-8nU_start_79.0_label_1.mp4
124.0344579219818	2.02160906791687	165.0	1.0	2.4588780403137207	Using_the_monkey_bar/v_Using_the_monkey_bar_id_lMFp8FPeDHI_start_70.5_label_1.mp4
132.0334439277649	2.0220730304718018	47.0	-1.0	2.443871021270752	Elliptical_trainer/v_Elliptical_trainer_id_cUQlPyiyom4_start_41.5_label_1.mp4
136.03409886360168	2.0209290981292725	39.0	1.0	2.371278047561645	Doing_fencing/v_Doing_fencing_id_qLEYb_lTjZ0_start_42.5_label_1.mp4
140.0356628894806	2.0195140838623047	123.0	1.0	2.409718990325928	Putting_on_shoes/v_Putting_on_shoes_id_lCrEvuzHLMo_start_3.0_label_1.mp4
144.03653192520142	2.018390893936157	46.0	-1.0	2.488839864730835	Drum_corps/v_Drum_corps_id_Z6YkZvPnow4_start_51.5_label_1.mp4
148.03413081169128	2.0201070308685303	134.0	n/a	n/a	Sharpening_knives/v_Sharpening_knives_id_JIxOWtA5QhA_start_2.0_label_1.mp4
156.03422093391418	2.019331932067871	26.0	-1.0	2.5231809616088867	Chopping_wood/v_Chopping_wood_id_6GxCxtAyp94_start_128.5_label_1.mp4
160.0363209247589	2.017242908477783	53.0	-1.0	2.52101993560791	Getting_a_piercing/v_Getting_a_piercing_id_PDupB1bn_dI_start_39.5_label_1.mp4
164.03556489944458	2.017359972000122	152.0	1.0	2.4338669776916504	Surfing/v_Surfing_id_Ih2zev1O_kw_start_50.5_label_1.mp4
168.03523683547974	2.0173630714416504	125.0	-1.0	2.6021859645843506	Raking_leaves/v_Raking_leaves_id_vfzPtRiZw7k_start_2.0_label_1.mp4
172.03560376167297	2.016649007797241	94.0	-1.0	2.6018052101135254	Playing_bagpipes/v_Playing_bagpipes_id_9kc4iMe5btc_start_55.0_label_1.mp4
180.03517985343933	2.016334056854248	83.0	-1.0	2.322252035140991	Mooping_floor/v_Mooping_floor_id_cZTK2tcb2M4_start_5.5_label_1.mp4
184.03356790542605	2.0173468589782715	15.0	n/a	n/a	Brushing_hair/v_Brushing_hair_id_wFd1A098z0U_start_71.5_label_1.mp4
188.0329389572144	2.0178799629211426	89.0	-1.0	2.4045798778533936	Ping-pong/v_Ping-pong_id_a0kaMqQxO0s_start_80.5_label_1.mp4
192.03504180908203	2.015779972076416	32.0	1.0	2.36241102218628	Croquet/v_Croquet_id_L9V9ZWRXf1U_start_23.5_label_1.mp4
196.0355508327484	2.0151381492614746	22.0	1.0	2.369974136352539	Canoeing/v_Canoeing_id_svpBk6qKtBQ_start_3.0_label_1.mp4
204.04353189468384	2.022702932357788	179.0	-1.0	2.4739460945129395	Wrapping_presents/v_Wrapping_presents_id__l7PCWGA1ss_start_46.5_label_1.mp4
208.0346188545227	2.014770984649658	93.0	1.0	2.538980007171631	Playing_badminton/v_Playing_badminton_id_1TJ_4-su_i8_start_130.0_label_1.mp4
212.0354809761048	2.0133979320526123	149.0	1.0	2.537962913513184	Springboard_diving/v_Springboard_diving_id_GagEOueHXYM_start_28.5_label_1.mp4
216.0342938899994	2.014504909515381	115.0	1.0	2.4672210216522217	Pole_vault/v_Pole_vault_id_v8CtWAE3uk8_start_26.0_label_1.mp4
220.0370349884033	2.0279757976531982	154.0	-1.0	2.9204838275909424	Swinging_at_the_playground/v_Swinging_at_the_playground_id_bsYgi6hHJ9A_start_41.5_label_1.mp4
228.0380837917328	2.0097951889038086	17.0	-1.0	2.5194711685180664	Building_sandcastles/v_Building_sandcastles_id_aKo6lt5PrZ4_start_3.5_label_1.mp4
232.0338408946991	2.013324022293091	13.0	1.0	2.427680015563965	Braiding_hair/v_Braiding_hair_id_MGi8rhUMMPM_start_46.5_label_1.mp4
236.0373568534851	2.009598016738892	92.0	-1.0	1.7759270668029783	Playing_accordion/v_Playing_accordion_id_3c6OB8CUXAU_start_62.5_label_1.mp4
240.03462386131287	2.012058019638061	21.0	-1.0	2.40291690826416	Camel_ride/v_Camel_ride_id_xfa1PgWcpCA_start_9.5_label_1.mp4
244.0365579128265	1.9928269386291504	43.0	-1.0	2.4570178985595703	Doing_nails/v_Doing_nails_id_wl06QaAFivY_start_75.0_label_1.mp4
252.03598499298096	2.0095059871673584	96.0	-1.0	2.4415879249572754	Playing_blackjack/v_Playing_blackjack_id_an2beH0m2TU_start_42.0_label_1.mp4
256.03476881980896	1.9937410354614256	73.0	1.0	2.4667890071868896	Kneeling/v_Kneeling_id_K0GHNhB6H38_start_3.5_label_1.mp4
260.033814907074	1.9945309162139893	59.0	-1.0	2.4838180541992188	Hand_washing_clothes/v_Hand_washing_clothes_id_u9CAHU4CG4Y_start_37.5_label_1.mp4
264.0350699424744	1.9929640293121336	30.0	-1.0	2.386436939239502	Cleaning_windows/v_Cleaning_windows_id_I4A-RHf81tg_start_97.5_label_1.mp4
268.0359959602356	2.02479887008667	117.0	-1.0	2.433586835861206	Polishing_shoes/v_Polishing_shoes_id_gUf2UzczVeo_start_21.5_label_1.mp4
276.03935194015503	2.0208098888397217	128.0	-1.0	2.2862038612365723	Rock-paper-scissors/v_Rock-paper-scissors_id_SmxAHGn5Gjg_start_44.5_label_1.mp4
280.0338478088379	1.992614984512329	142.0	-1.0	2.635751962661743	Smoking_a_cigarette/v_Smoking_a_cigarette_id_Qa5aLwl-JM4_start_9.5_label_1.mp4
284.0350878238678	2.0241940021514893	126.0	-1.0	2.402507066726685	Riding_bumper_cars/v_Riding_bumper_cars_id_AZ75C03Q-VA_start_83.0_label_1.mp4
288.0327699184418	2.0098700523376465	159.0	-1.0	2.3569018840789795	Trimming_branches_or_hedges/v_Trimming_branches_or_hedges_id_NIb5qAzD7zM_start_140.5_label_1.mp4
292.0338509082794	2.0251729488372803	97.0	-1.0	2.443819999694824	Playing_congas/v_Playing_congas_id_-ATGh1Enljg_start_17.0_label_1.mp4
