onset	duration	trial_type	response	response_time	stim_file
12.10487699508667	2.0096328258514404	98.0	-1.0	2.371316909790039	Playing_drums/v_Playing_drums_id_n3JwPEgK_Fw_start_48.0_label_1.mp4
16.0314838886261	2.0166170597076416	140.0	1.0	2.588706016540528	Skiing/v_Skiing_id_dbjEQ7KR2v0_start_8.0_label_1.mp4
20.03462290763855	2.0130889415740967	33.0	-1.0	2.2736639976501465	Cutting_the_grass/v_Cutting_the_grass_id_Pymx7YQzb90_start_25.0_label_1.mp4
24.03699898719788	2.026851892471313	26.0	-1.0	2.567317008972168	Chopping_wood/v_Chopping_wood_id_GExEVG4PFBQ_start_6.5_label_1.mp4
28.03938698768616	2.024401903152466	179.0	-1.0	2.468885898590088	Wrapping_presents/v_Wrapping_presents_id_fi54Wpkjr7k_start_35.5_label_1.mp4
36.03592896461487	2.0108120441436768	9.0	1.0	2.513471841812134	Beach_soccer/v_Beach_soccer_id_odXvWWbVd6E_start_7.0_label_1.mp4
40.04088878631592	2.021782159805298	44.0	1.0	2.4754562377929688	Doing_step_aerobics/v_Doing_step_aerobics_id_sDKT6P-ajis_start_178.0_label_1.mp4
44.03149890899658	2.0137200355529785	12.0	-1.0	2.124480962753296	Blow-drying_hair/v_Blow-drying_hair_id_rAfi7dTiB6k_start_17.0_label_1.mp4
48.03538489341736	2.0100080966949463	144.0	1.0	2.4968440532684326	Snatch/v_Snatch_id_o2mjBRD7tts_start_15.5_label_1.mp4
52.03153586387634	2.013594150543213	5.0	-1.0	2.4127449989318848	Baking_cookies/v_Baking_cookies_id_57_VZR4m3BA_start_3.0_label_1.mp4
60.03502488136292	2.0258989334106445	97.0	-1.0	2.3292860984802246	Playing_congas/v_Playing_congas_id_VMq8Yis-Bz8_start_95.0_label_1.mp4
64.03856992721558	2.022125005722046	62.0	1.0	2.4617340564727783	High_jump/v_High_jump_id_ch852kF3jBo_start_60.5_label_1.mp4
68.03525590896606	2.008440971374512	180.0	1.0	2.633073091506958	Zumba/v_Zumba_id_tfaEtb44IrM_start_94.5_label_1.mp4
72.03492498397827	1.9918019771575928	10.0	-1.0	2.6333940029144287	Beer_pong/v_Beer_pong_id_nvxuReK5nJw_start_9.5_label_1.mp4
76.03368496894836	2.0259439945220947	147.0	1.0	2.3787078857421875	Spinning/v_Spinning_id_dgxIRhtYJUo_start_42.0_label_1.mp4
84.036062002182	2.0229458808898926	2.0	1.0	2.40032696723938	Arm_wrestling/v_Arm_wrestling_id_H_aFXRzO5DU_start_17.0_label_1.mp4
88.03421688079834	2.024477958679199	124.0	1.0	2.4502270221710205	Rafting/v_Rafting_id_71GB28EKisU_start_37.0_label_1.mp4
92.03237390518188	2.009026050567627	102.0	-1.0	2.4200479984283447	Playing_harmonica/v_Playing_harmonica_id_KlRPPDSg80E_start_98.5_label_1.mp4
96.03406000137328	2.0239458084106445	28.0	-1.0	2.386366844177246	Cleaning_shoes/v_Cleaning_shoes_id_VLZdtGbTo8w_start_26.5_label_1.mp4
100.03568482398988	2.0220601558685303	119.0	-1.0	2.320734977722168	Preparing_pasta/v_Preparing_pasta_id_FyTZaBtFYog_start_78.0_label_1.mp4
108.03184294700624	2.008749961853028	86.0	-1.0	2.356688976287842	Painting/v_Painting_id_iT5OfcJ47jM_start_34.5_label_1.mp4
112.0361909866333	2.0205650329589844	70.0	1.0	2.5281429290771484	Javelin_throw/v_Javelin_throw_id_OCKQY18P9mQ_start_2.5_label_1.mp4
116.03595185279846	2.020216941833496	111.0	-1.0	2.472429037094116	Playing_saxophone/v_Playing_saxophone_id_RJYjti2trA8_start_15.0_label_1.mp4
120.0359377861023	2.0200321674346924	7.0	-1.0	2.4805591106414795	Bathing_dog/v_Bathing_dog_id_UMw77WIPQ3w_start_14.5_label_1.mp4
124.03871893882751	2.017003059387207	172.0	-1.0	2.437685012817383	Walking_the_dog/v_Walking_the_dog_id_tMbGC0ruO2Y_start_64.0_label_1.mp4
132.03664183616638	2.0183310508728027	57.0	1.0	2.471837043762207	Hammer_throw/v_Hammer_throw_id_84vVQwMrKFw_start_4.5_label_1.mp4
136.03502082824707	2.019641160964966	99.0	1.0	3.001444101333618	Playing_field_hockey/v_Playing_field_hockey_id_3mmeIAa19ZM_start_58.0_label_1.mp4
140.0343358516693	2.02006196975708	110.0	-1.0	2.5460870265960693	Playing_rubik_cube/v_Playing_rubik_cube_id_K4ZIgiDxZv4_start_20.0_label_1.mp4
144.0329627990723	2.021017074584961	87.0	-1.0	2.699559211730957	Painting_fence/v_Painting_fence_id_B8_xqZ3bT6o_start_151.0_label_1.mp4
148.03454279899597	2.0191571712493896	4.0	-1.0	2.609925031661988	BMX/v_BMX_id_HzjMJeivwdA_start_69.5_label_1.mp4
156.03681683540344	2.01626205444336	40.0	-1.0	2.447649002075196	Doing_karate/v_Doing_karate_id_LMSO6nBkAao_start_51.0_label_1.mp4
160.03570580482483	2.0170180797576904	82.0	-1.0	2.440864086151123	Mixing_drinks/v_Mixing_drinks_id_e4RA2CJ6czU_start_22.0_label_1.mp4
164.03868198394775	2.01343297958374	178.0	-1.0	2.445762872695923	Windsurfing/v_Windsurfing_id_Foyc7kkihss_start_71.5_label_1.mp4
168.03342294692993	2.018638849258423	152.0	1.0	2.363066911697388	Surfing/v_Surfing_id_VvvTs7oh6Ow_start_133.5_label_1.mp4
172.03105688095093	2.020693063735962	169.0	-1.0	2.3974950313568115	Vacuuming_floor/v_Vacuuming_floor_id_bKsEI7rHkrs_start_28.5_label_1.mp4
180.0390169620514	2.0125019550323486	74.0	-1.0	2.42957091331482	Knitting/v_Knitting_id_FKcngDuoJWg_start_139.5_label_1.mp4
184.0337879657745	2.016958951950073	130.0	1.0	2.4110398292541504	Rope_skipping/v_Rope_skipping_id_thkhlZFoUzE_start_26.0_label_1.mp4
188.03303480148315	2.017076015472412	90.0	-1.0	2.499455213546753	Plastering/v_Plastering_id_OFF7dkH2qOE_start_72.0_label_1.mp4
192.0343828201294	2.0157470703125	88.0	-1.0	2.306140184402466	Painting_furniture/v_Painting_furniture_id_HFydtU1K68U_start_36.0_label_1.mp4
196.0348398685456	2.01511812210083	118.0	-1.0	2.4496960639953613	Powerbocking/v_Powerbocking_id_hBOx7SS-O6o_start_62.0_label_1.mp4
204.0351519584656	2.0132758617401123	13.0	-1.0	2.353458881378174	Braiding_hair/v_Braiding_hair_id_v7JlF6Ls2W8_start_37.0_label_1.mp4
208.03637886047363	2.01184606552124	165.0	-1.0	2.9761760234832764	Using_the_monkey_bar/v_Using_the_monkey_bar_id_5ht4nJiSvcE_start_63.0_label_1.mp4
212.0351088047028	2.013223171234131	29.0	-1.0	2.305558204650879	Cleaning_sink/v_Cleaning_sink_id_5cM--SL-8xU_start_152.5_label_1.mp4
216.03730988502505	2.0103769302368164	27.0	1.0	2.5673611164093018	Clean_and_jerk/v_Clean_and_jerk_id_PrRPWyD7q8o_start_4.5_label_1.mp4
220.031389951706	2.016284942626953	6.0	1.0	2.757145881652832	Ballet/v_Ballet_id_zPQp-Re-PlA_start_101.0_label_1.mp4
228.0348579883576	2.012209892272949	127.0	-1.0	2.56972599029541	Rock_climbing/v_Rock_climbing_id_jni8pQK1EoA_start_6.5_label_1.mp4
232.03401589393616	2.0121068954467773	151.0	1.0	2.354569911956787	Sumo/v_Sumo_id_SnhfnJvu2vc_start_91.5_label_1.mp4
236.0334749221801	2.012791872024536	113.0	-1.0	2.3151230812072754	Playing_violin/v_Playing_violin_id_uVUyACDTZy8_start_44.0_label_1.mp4
240.0332398414612	2.0123209953308105	159.0	-1.0	2.451336145401001	Trimming_branches_or_hedges/v_Trimming_branches_or_hedges_id_UAsISmdRqjc_start_48.5_label_1.mp4
244.0338099002838	2.011785984039306	108.0	1.0	2.4268219470977783	Playing_pool/v_Playing_pool_id_sDMhbcOGSkk_start_57.5_label_1.mp4
252.03792786598208	2.023447036743164	84.0	-1.0	2.3988139629364014	Mowing_the_lawn/v_Mowing_the_lawn_id_c1Oq_qxXXEU_start_111.0_label_1.mp4
256.03769087791443	2.0236759185791016	155.0	-1.0	2.4069530963897705	Table_soccer/v_Table_soccer_id_Ux0taT28gcA_start_112.5_label_1.mp4
260.03311586380005	2.01094913482666	136.0	1.0	2.5075221061706543	Shot_put/v_Shot_put_id_XhwHasY98Oo_start_25.5_label_1.mp4
264.0320949554444	2.011275053024292	56.0	-1.0	2.3405089378356934	Grooming_horse/v_Grooming_horse_id_wXAM1a3JCLI_start_115.0_label_1.mp4
268.0333938598633	2.3104610443115234	41.0	1.0	2.8033390045166016	Doing_kickboxing/v_Doing_kickboxing_id_99YjGtMnLqY_start_24.5_label_1.mp4
276.0345268249512	2.0080580711364746	120.0	-1.0	2.578144073486328	Preparing_salad/v_Preparing_salad_id_Z4k3A2QE8xo_start_32.0_label_1.mp4
280.0320370197296	2.01029896736145	51.0	1.0	2.492583990097046	Futsal/v_Futsal_id_HBzk1UacQ_c_start_112.0_label_1.mp4
284.0382719039917	2.0204460620880127	47.0	1.0	2.46241307258606	Elliptical_trainer/v_Elliptical_trainer_id_ygn3529r1eo_start_87.0_label_1.mp4
288.03548192977905	2.023000955581665	123.0	1.0	2.377268075942993	Putting_on_shoes/v_Putting_on_shoes_id_0msNvIMDCFY_start_24.0_label_1.mp4
292.0392608642578	2.0184309482574463	129.0	1.0	2.485373020172119	Rollerblading/v_Rollerblading_id_ZCxLjPt0Ozw_start_67.0_label_1.mp4
