onset	duration	trial_type	response	response_time	stim_file
12.112905025482178	2.019582986831665	26.0	-1.0	2.576019048690796	Chopping_wood/v_Chopping_wood_id_2vy0dMXhlWI_start_67.5_label_1.mp4
16.036041975021362	2.012670993804932	125.0	-1.0	2.684937000274658	Raking_leaves/v_Raking_leaves_id_HC2In-0OoeU_start_7.5_label_1.mp4
20.03357696533203	2.014871120452881	171.0	1.0	2.543347120285034	Wakeboarding/v_Wakeboarding_id_TwDxp_LNqWc_start_74.5_label_1.mp4
24.036461114883423	2.0116209983825684	172.0	-1.0	2.756467819213867	Walking_the_dog/v_Walking_the_dog_id_IdK3oTsYaHw_start_2.0_label_1.mp4
28.03579306602478	2.011812925338745	60.0	-1.0	2.629145860671997	Hanging_wallpaper/v_Hanging_wallpaper_id_zWoDOUE2X58_start_65.0_label_1.mp4
36.03371691703797	2.013404130935669	1.0	1.0	2.559178113937378	Archery/v_Archery_id_Sb7xdDg0_Uc_start_104.0_label_1.mp4
40.03630304336548	2.027005910873413	180.0	-1.0	2.6526999473571777	Zumba/v_Zumba_id__rEtNuJyyjE_start_18.0_label_1.mp4
44.03645396232605	2.0095081329345703	3.0	-1.0	2.732490062713623	Assembling_bicycle/v_Assembling_bicycle_id_Kkj69zLRCxg_start_149.5_label_1.mp4
48.03450202941895	2.0115768909454346	57.0	1.0	2.790482997894287	Hammer_throw/v_Hammer_throw_id_qTcHd1L8ajk_start_8.5_label_1.mp4
52.03543996810913	2.0099899768829346	16.0	-1.0	2.557573080062866	Brushing_teeth/v_Brushing_teeth_id_zGBHZs-ysJI_start_103.5_label_1.mp4
60.03240513801575	2.012847900390625	2.0	-1.0	2.520593881607056	Arm_wrestling/v_Arm_wrestling_id_LfjPHV902qc_start_11.0_label_1.mp4
64.03496313095093	2.00968599319458	73.0	-1.0	3.1661009788513184	Kneeling/v_Kneeling_id_XDF4NIJyeh8_start_12.5_label_1.mp4
68.03495597839355	1.992647171020508	138.0	-1.0	2.9420461654663086	Shuffleboard/v_Shuffleboard_id_NZ5iioSnCO8_start_43.0_label_1.mp4
72.03417491912842	2.009244203567505	7.0	-1.0	2.766909122467041	Bathing_dog/v_Bathing_dog_id_HfzQ6IhlvKU_start_18.0_label_1.mp4
76.03279900550842	2.010362148284912	111.0	-1.0	2.712230920791626	Playing_saxophone/v_Playing_saxophone_id_Ca0E6GeCmOw_start_68.0_label_1.mp4
84.03460311889648	2.025053024291992	58.0	-1.0	2.67038893699646	Hand_car_wash/v_Hand_car_wash_id_yq9fh6pi-co_start_71.0_label_1.mp4
88.03527212142944	2.024016857147217	93.0	1.0	2.55774998664856	Playing_badminton/v_Playing_badminton_id_IEhTfm7Ytq8_start_14.5_label_1.mp4
92.03302693367004	1.992678165435791	94.0	-1.0	2.68802809715271	Playing_bagpipes/v_Playing_bagpipes_id_Y64zB0duM1c_start_24.5_label_1.mp4
96.0336799621582	2.0080020427703857	167.0	1.0	2.687373161315918	Using_the_rowing_machine/v_Using_the_rowing_machine_id_wozM9Es0st8_start_93.0_label_1.mp4
100.03598809242249	2.022169828414917	102.0	-1.0	2.7811050415039062	Playing_harmonica/v_Playing_harmonica_id_eeS_Q93T7GU_start_23.0_label_1.mp4
108.03257703781128	1.991736888885498	86.0	-1.0	2.53657603263855	Painting/v_Painting_id_7ppEYcyWXdc_start_7.0_label_1.mp4
112.03424096107484	2.022757053375244	92.0	-1.0	2.8308401107788086	Playing_accordion/v_Playing_accordion_id_yGDWkpOrXDs_start_98.0_label_1.mp4
116.03365111351012	2.023444890975952	95.0	1.0	2.5594139099121094	Playing_beach_volleyball/v_Playing_beach_volleyball_id_4tVUI2lYBaI_start_22.0_label_1.mp4
120.03326511383057	2.0231258869171143	8.0	1.0	2.7517879009246826	Baton_twirling/v_Baton_twirling_id_oGok-GgzMI0_start_18.0_label_1.mp4
124.03534603118896	2.021060943603516	164.0	1.0	2.765832901000977	Using_the_balance_beam/v_Using_the_balance_beam_id_KP4lP7CS8YQ_start_34.0_label_1.mp4
132.03651809692383	2.019080877304077	27.0	1.0	2.7166099548339844	Clean_and_jerk/v_Clean_and_jerk_id_-LSOghPdeYM_start_60.5_label_1.mp4
136.03230214118958	2.02295994758606	65.0	-1.0	3.1848299503326416	Horseback_riding/v_Horseback_riding_id_E1eQ3yDeRU0_start_8.0_label_1.mp4
140.0359239578247	2.0191001892089844	119.0	-1.0	3.0052080154418945	Preparing_pasta/v_Preparing_pasta_id_b4tiAd1oKM4_start_107.5_label_1.mp4
144.03361105918884	2.02115797996521	117.0	-1.0	2.663529872894287	Polishing_shoes/v_Polishing_shoes_id_eqjPCLgjLUk_start_194.5_label_1.mp4
148.0333149433136	2.0210301876068115	135.0	-1.0	2.6958651542663574	Shaving/v_Shaving_id_geRHsGQL2Hc_start_137.5_label_1.mp4
156.0307650566101	2.022892951965332	21.0	-1.0	2.7625019550323486	Camel_ride/v_Camel_ride_id_8z7gU31hbcM_start_2.0_label_1.mp4
160.035462141037	2.017883777618408	123.0	-1.0	2.965698003768921	Putting_on_shoes/v_Putting_on_shoes_id_0nUhy1dV-uA_start_42.5_label_1.mp4
164.03445100784302	2.0186409950256348	37.0	1.0	2.9427311420440674	Dodgeball/v_Dodgeball_id_Cwlwwa1SPNI_start_124.0_label_1.mp4
168.03416299819946	2.018679141998291	110.0	-1.0	2.9191091060638428	Playing_rubik_cube/v_Playing_rubik_cube_id_sihNLID-aAk_start_110.5_label_1.mp4
172.03482604026794	2.017745018005371	76.0	1.0	2.6623129844665527	Long_jump/v_Long_jump_id_ah9U8lRWtzw_start_12.0_label_1.mp4
180.03556513786316	2.016138792037964	79.0	-1.0	2.7016258239746094	Making_a_lemonade/v_Making_a_lemonade_id_CuJuNTxp0d8_start_67.0_label_1.mp4
184.0346550941468	2.016814947128296	14.0	-1.0	2.7985548973083496	Breakdancing/v_Breakdancing_id_tKFfUgDWJQw_start_39.5_label_1.mp4
188.03457713127136	2.016577959060669	84.0	-1.0	2.918569803237915	Mowing_the_lawn/v_Mowing_the_lawn_id_CZf2Ht-6uCI_start_13.5_label_1.mp4
192.03450798988345	2.016258955001831	70.0	1.0	2.9026899337768555	Javelin_throw/v_Javelin_throw_id_qhXnVI6Qsu8_start_18.0_label_1.mp4
196.0363380908966	2.01395583152771	11.0	-1.0	2.6129848957061768	Belly_dance/v_Belly_dance_id_bt2y1FUEAnA_start_89.5_label_1.mp4
204.03532600402832	2.014516115188598	90.0	-1.0	2.653892040252685	Plastering/v_Plastering_id_10cBuLO_mFA_start_97.0_label_1.mp4
208.03539395332336	2.0139410495758057	105.0	-1.0	2.6618311405181885	Playing_lacrosse/v_Playing_lacrosse_id_FkB1O7UgcDc_start_26.5_label_1.mp4
212.0376489162445	2.0111122131347656	42.0	1.0	2.635589122772217	Doing_motocross/v_Doing_motocross_id_ilK3DZZKbEo_start_49.0_label_1.mp4
216.035138130188	2.013669967651367	159.0	-1.0	2.526206016540528	Trimming_branches_or_hedges/v_Trimming_branches_or_hedges_id_Ut1NSjtam-k_start_48.5_label_1.mp4
220.0350649356842	2.0132110118865967	115.0	1.0	2.966231107711792	Pole_vault/v_Pole_vault_id_cK3mQbWfyM8_start_19.0_label_1.mp4
228.0350770950317	2.0124759674072266	87.0	-1.0	2.678205966949463	Painting_fence/v_Painting_fence_id_tS9pwvBoQMw_start_17.0_label_1.mp4
232.03631591796875	2.0111000537872314	160.0	-1.0	2.756933212280273	Triple_jump/v_Triple_jump_id_32uRcTZFD1g_start_11.5_label_1.mp4
236.0353181362152	1.994894981384277	129.0	-1.0	2.638237953186035	Rollerblading/v_Rollerblading_id_O8rBafJXa2M_start_39.0_label_1.mp4
240.0341839790344	2.012355089187622	109.0	1.0	2.559077024459839	Playing_racquetball/v_Playing_racquetball_id_jOiPb15D-IQ_start_2.5_label_1.mp4
244.03520011901853	2.0112318992614746	130.0	1.0	2.702096939086914	Rope_skipping/v_Rope_skipping_id_3GpDZcYe_Ow_start_73.5_label_1.mp4
252.03802394866943	2.0242621898651123	173.0	-1.0	2.659269094467163	Washing_dishes/v_Washing_dishes_id_nhpfbfQihhQ_start_102.5_label_1.mp4
256.03346800804127	2.011230945587158	96.0	-1.0	2.687955141067505	Playing_blackjack/v_Playing_blackjack_id_qdt9p2CJaGk_start_25.0_label_1.mp4
260.0313310623169	2.0137698650360107	132.0	1.0	2.729984998703003	Sailing/v_Sailing_id_vXyQHrIko0c_start_99.5_label_1.mp4
264.03665113449097	2.0245277881622314	157.0	-1.0	2.8768057823181152	Tango/v_Tango_id_hJ9duZfzqxg_start_2.5_label_1.mp4
268.0338659286499	1.9936010837554927	55.0	-1.0	2.927582025527954	Grooming_dog/v_Grooming_dog_id_tYkO9HZHtDk_start_5.0_label_1.mp4
276.0361180305481	2.023965120315552	82.0	-1.0	2.6131770610809326	Mixing_drinks/v_Mixing_drinks_id_VFvik_THcNQ_start_13.0_label_1.mp4
280.0345871448517	1.991919994354248	163.0	1.0	2.7428858280181885	Using_parallel_bars/v_Using_parallel_bars_id_cKRxJTMM7kk_start_15.5_label_1.mp4
284.03630113601685	2.023190975189209	9.0	1.0	3.085076808929444	Beach_soccer/v_Beach_soccer_id_5DXU5e-CWhw_start_12.0_label_1.mp4
288.03727293014526	2.021969079971313	34.0	-1.0	2.7801060676574707	Decorating_the_Christmas_tree/v_Decorating_the_Christmas_tree_id_sSKnAwZazLU_start_62.0_label_1.mp4
292.0323679447174	2.009902000427246	18.0	1.0	2.905060052871704	Bullfighting/v_Bullfighting_id_HtihmSvoD_I_start_83.5_label_1.mp4
