onset	duration	trial_type	response	response_time	stim_file
12.108105182647703	2.023887872695923	153.0	-1.0	2.682090997695923	Swimming/v_Swimming_id_-ngQ699_U2I_start_22.0_label_1.mp4
16.03819704055786	2.0107829570770264	30.0	-1.0	2.536057949066162	Cleaning_windows/v_Cleaning_windows_id_QHCbXg9AcYY_start_11.0_label_1.mp4
20.037150144577023	2.0111379623413086	26.0	-1.0	2.9691760540008545	Chopping_wood/v_Chopping_wood_id_FKKmNm-sdpg_start_7.0_label_1.mp4
24.034602165222168	2.0136728286743164	34.0	-1.0	3.051671028137207	Decorating_the_Christmas_tree/v_Decorating_the_Christmas_tree_id_dy8c6VPp7d8_start_166.0_label_1.mp4
28.035442113876343	2.012578010559082	146.0	1.0	3.042841911315918	Snowboarding/v_Snowboarding_id_R9On-uKeQKM_start_40.0_label_1.mp4
36.03804802894592	2.0086891651153564	144.0	1.0	2.656233072280884	Snatch/v_Snatch_id_vUQ6yG7bpso_start_34.0_label_1.mp4
40.035227060318	2.0117430686950684	81.0	-1.0	2.691193103790283	Making_an_omelette/v_Making_an_omelette_id_cKXFxLPH9QE_start_98.5_label_1.mp4
44.03577899932861	2.010634183883667	68.0	-1.0	2.84264612197876	Ice_fishing/v_Ice_fishing_id_S125eT0psJs_start_15.5_label_1.mp4
48.03544807434082	2.010272026062012	53.0	-1.0	2.938833951950073	Getting_a_piercing/v_Getting_a_piercing_id_ItozdCAC_JI_start_15.0_label_1.mp4
52.037474155426025	2.007930040359497	103.0	1.0	2.7768359184265137	Playing_ice_hockey/v_Playing_ice_hockey_id_mqShTXNtnQE_start_5.5_label_1.mp4
60.03693318367005	2.008286952972412	90.0	-1.0	2.473543882369995	Plastering/v_Plastering_id_YF5AQamiEog_start_18.5_label_1.mp4
64.03298807144165	2.011759996414185	78.0	-1.0	2.9093611240386963	Making_a_cake/v_Making_a_cake_id_2PCZkpF1_wU_start_60.5_label_1.mp4
68.03424620628357	2.01017689704895	72.0	-1.0	2.7961888313293457	Kite_flying/v_Kite_flying_id_wzo_f9dIOEM_start_141.5_label_1.mp4
72.03671503067017	2.0240590572357178	107.0	1.0	2.697676181793213	Playing_polo/v_Playing_polo_id_AzAxmaulKww_start_92.0_label_1.mp4
76.03383302688599	2.0099151134490967	100.0	-1.0	2.45251202583313	Playing_flauta/v_Playing_flauta_id_FpDDilwnHZQ_start_28.0_label_1.mp4
84.03613519668579	2.0235588550567627	131.0	1.0	2.794319868087769	Running_a_marathon/v_Running_a_marathon_id_zcYWaV-UWOM_start_15.5_label_1.mp4
88.03295803070068	2.009968042373657	101.0	-1.0	2.837402105331421	Playing_guitarra/v_Playing_guitarra_id_vYqqRlpYz_c_start_6.0_label_1.mp4
92.03513622283936	2.023966789245605	75.0	-1.0	3.475238800048828	Laying_tile/v_Laying_tile_id_QVVjm8ri86E_start_78.0_label_1.mp4
96.03443312644958	2.02437686920166	17.0	-1.0	2.90789008140564	Building_sandcastles/v_Building_sandcastles_id_8naLpC2LQJo_start_43.0_label_1.mp4
100.03787016868591	2.0206940174102783	98.0	-1.0	2.5206398963928223	Playing_drums/v_Playing_drums_id_ZsFTMolfoNo_start_39.0_label_1.mp4
108.03818011283876	2.0197370052337646	152.0	1.0	3.608225107192993	Surfing/v_Surfing_id_jT5VsRNR4u8_start_87.0_label_1.mp4
112.03658604621889	2.0209219455718994	125.0	-1.0	2.905845165252685	Raking_leaves/v_Raking_leaves_id_lNZQJ5jJT0U_start_33.5_label_1.mp4
116.03521299362184	2.0218729972839355	23.0	1.0	2.827195167541504	Capoeira/v_Capoeira_id_S8aPySYOo6E_start_23.0_label_1.mp4
120.03269100189208	2.024003028869629	24.0	-1.0	2.861840009689331	Carving_jack-o-lanterns/v_Carving_jack-o-lanterns_id_AW84t9OIZBs_start_56.5_label_1.mp4
124.03439617156982	2.0221948623657227	51.0	1.0	2.8040518760681152	Futsal/v_Futsal_id_HURMd4HBy_w_start_46.0_label_1.mp4
132.03364419937134	2.022077798843384	156.0	-1.0	2.75679087638855	Tai_chi/v_Tai_chi_id_w1Eu3kvPKhs_start_208.0_label_1.mp4
136.03481602668762	2.0204341411590576	134.0	-1.0	2.811585187911988	Sharpening_knives/v_Sharpening_knives_id_0NpyDBYYl98_start_110.0_label_1.mp4
140.03114008903503	2.023935079574585	27.0	-1.0	2.7833139896392822	Clean_and_jerk/v_Clean_and_jerk_id_AU19hpT8WPY_start_25.0_label_1.mp4
144.03523921966553	2.019343852996826	65.0	1.0	2.9152348041534424	Horseback_riding/v_Horseback_riding_id_TCgMHgd8gu4_start_12.0_label_1.mp4
148.03190302848816	2.022484064102173	52.0	-1.0	3.046542167663574	Getting_a_haircut/v_Getting_a_haircut_id_k23BFB2AAac_start_19.5_label_1.mp4
156.03928899765015	2.01459002494812	111.0	-1.0	2.399177074432373	Playing_saxophone/v_Playing_saxophone_id_NkjA467_XpY_start_1.5_label_1.mp4
160.0339012145996	2.019471883773804	121.0	-1.0	2.588618993759156	Putting_in_contact_lenses/v_Putting_in_contact_lenses_id_ecWJfMqm6aY_start_10.5_label_1.mp4
164.03233909606934	2.020627975463867	141.0	1.0	2.9501779079437256	Slacklining/v_Slacklining_id_XxzoQnK_I28_start_14.0_label_1.mp4
168.03441405296326	2.018280029296875	106.0	-1.0	2.7720701694488525	Playing_piano/v_Playing_piano_id_Oj8f0w_SMnw_start_91.5_label_1.mp4
172.03632402420044	2.0161681175231934	166.0	1.0	2.9541890621185303	Using_the_pommel_horse/v_Using_the_pommel_horse_id_WQgNcZxJOXo_start_6.0_label_1.mp4
180.03616309165955	2.0157480239868164	128.0	-1.0	2.5063650608062744	Rock-paper-scissors/v_Rock-paper-scissors_id_CAy-vpsZtQE_start_16.0_label_1.mp4
184.0337400436401	2.017522096633911	130.0	-1.0	2.9808151721954346	Rope_skipping/v_Rope_skipping_id_CE1QNVgNpQM_start_40.0_label_1.mp4
188.03322410583496	2.0011610984802246	36.0	1.0	2.989305019378662	Discus_throw/v_Discus_throw_id_wqKyjzR7rQM_start_4.5_label_1.mp4
192.03653621673584	2.0142319202423096	163.0	1.0	2.993997812271118	Using_parallel_bars/v_Using_parallel_bars_id_nqHgi09AszA_start_15.5_label_1.mp4
196.0350811481476	2.015346050262451	157.0	-1.0	2.6194889545440674	Tango/v_Tango_id_hXfWiRzm0Ts_start_75.5_label_1.mp4
204.0370140075684	2.012709140777588	161.0	1.0	2.8975400924682617	Tug_of_war/v_Tug_of_war_id_zw6k4AxpexM_start_15.0_label_1.mp4
208.0335600376129	2.0158400535583496	140.0	1.0	2.797065019607544	Skiing/v_Skiing_id_KwzcMK2wiMU_start_61.0_label_1.mp4
212.0336651802063	2.015307903289795	118.0	1.0	3.0929558277130127	Powerbocking/v_Powerbocking_id_V4Yaem7pMAU_start_3.5_label_1.mp4
216.0331621170044	2.0157570838928223	80.0	-1.0	3.021432876586914	Making_a_sandwich/v_Making_a_sandwich_id_WZOgBrgzQ2A_start_63.5_label_1.mp4
220.0377480983734	2.0105650424957275	16.0	-1.0	2.976813077926636	Brushing_teeth/v_Brushing_teeth_id_YfFRSxLQqbg_start_5.0_label_1.mp4
228.0355679988861	2.0119991302490234	96.0	-1.0	2.5390660762786865	Playing_blackjack/v_Playing_blackjack_id_01jLMKiMiYU_start_12.0_label_1.mp4
232.03880405426025	1.9918100833892824	88.0	-1.0	2.8478879928588867	Painting_furniture/v_Painting_furniture_id_QlqRPG_o8-I_start_24.0_label_1.mp4
236.03605318069447	2.0109198093414307	162.0	1.0	3.362677812576294	Tumbling/v_Tumbling_id_I7BwAmh6rJk_start_73.5_label_1.mp4
240.03574013710025	2.011370897293091	160.0	1.0	2.730902910232544	Triple_jump/v_Triple_jump_id_8O4uzm_Zxqc_start_15.5_label_1.mp4
244.0367851257324	2.0090160369873047	86.0	-1.0	2.737855911254883	Painting/v_Painting_id_9mFxglbxmpw_start_50.0_label_1.mp4
252.03519701957703	2.0270490646362305	74.0	-1.0	2.739443063735962	Knitting/v_Knitting_id_BpE9rNjhPsQ_start_87.0_label_1.mp4
256.03333401680004	2.0121140480041504	178.0	-1.0	3.085545063018799	Windsurfing/v_Windsurfing_id_6pcz3iKNU20_start_69.5_label_1.mp4
260.036416053772	1.9918060302734373	12.0	-1.0	2.6342480182647705	Blow-drying_hair/v_Blow-drying_hair_id_mt6XCwiY0Nk_start_3.0_label_1.mp4
264.0368380546569	2.024420022964477	124.0	1.0	1.3578100204467771	Rafting/v_Rafting_id_eal6qTybOJU_start_112.5_label_1.mp4
268.03200507164	2.0122790336608887	112.0	1.0	2.5827009677886963	Playing_squash/v_Playing_squash_id_wIMFN3hYST8_start_76.5_label_1.mp4
276.0351541042328	2.008440017700196	177.0	-1.0	2.3155651092529297	Welding/v_Welding_id_Zxdol7iUWj0_start_43.0_label_1.mp4
280.0334701538086	2.0099658966064453	122.0	-1.0	2.853203058242798	Putting_on_makeup/v_Putting_on_makeup_id_prCdxVoTOxI_start_14.5_label_1.mp4
284.0350921154022	2.0075509548187256	54.0	-1.0	2.539654016494751	Getting_a_tattoo/v_Getting_a_tattoo_id_EdveOGyZF-U_start_48.5_label_1.mp4
288.04057216644287	2.01866102218628	92.0	-1.0	2.7581489086151123	Playing_accordion/v_Playing_accordion_id_2O9_CMJUDvo_start_18.5_label_1.mp4
292.03561210632324	2.0233449935913086	132.0	-1.0	3.11513900756836	Sailing/v_Sailing_id_gInmL6whQUQ_start_66.5_label_1.mp4
