onset	duration	trial_type	response	response_time	stim_file
12.022006034851074	2.067167043685913	31.0	1.0	0.7301959991455078	Cricket/v_Cricket_id_AEWQfjiOuKk_start_2.5_label_1.mp4
16.02174997329712	2.0341169834136963	37.0	1.0	0.5636670589447021	Dodgeball/v_Dodgeball_id_9ZR6Fsluei8_start_81.5_label_1.mp4
20.02136707305908	2.0004770755767822	119.0	-1.0	0.493710994720459	Preparing_pasta/v_Preparing_pasta_id_oFP1jEwsRGI_start_147.0_label_1.mp4
24.0210440158844	2.0004000663757324	11.0	1.0	0.4379870891571045	Belly_dance/v_Belly_dance_id_JD97eap6HqI_start_7.5_label_1.mp4
28.02068305015564	2.00036096572876	19.0	1.0	0.5183360576629639	Bungee_jumping/v_Bungee_jumping_id_BkFsD0ZXqqQ_start_22.5_label_1.mp4
36.02023196220398	2.0000901222229004	136.0	1.0	0.4152569770812988	Shot_put/v_Shot_put_id_l7tyTnx0-bk_start_5.0_label_1.mp4
40.019636154174805	2.000530958175659	92.0	-1.0	0.4952778816223144	Playing_accordion/v_Playing_accordion_id_i3xq36tT_Ic_start_80.0_label_1.mp4
44.01937007904053	2.000401973724365	110.0	-1.0	0.4636960029602051	Playing_rubik_cube/v_Playing_rubik_cube_id_7yS_o5hIfQI_start_84.5_label_1.mp4
48.01901316642761	2.000574827194214	148.0	-1.0	0.4959330558776855	Spread_mulch/v_Spread_mulch_id_hEqkWbAmFR8_start_15.0_label_1.mp4
52.01864004135132	2.0004570484161377	180.0	1.0	0.5044291019439697	Zumba/v_Zumba_id_F2aTte2CozI_start_16.0_label_1.mp4
60.01800394058228	2.0006611347198486	133.0	1.0	0.5288629531860352	Scuba_diving/v_Scuba_diving_id_Uxd6HGaBYF8_start_41.0_label_1.mp4
64.0175940990448	2.033951997756958	43.0	-1.0	0.5599679946899414	Doing_nails/v_Doing_nails_id_MtjS4--R2nQ_start_124.5_label_1.mp4
68.01730394363403	2.050396203994751	26.0	-1.0	0.4475648403167724	Chopping_wood/v_Chopping_wood_id_OYOWq0nOUAM_start_22.0_label_1.mp4
72.01696705818176	2.03375506401062	48.0	-1.0	0.5846710205078125	Fixing_bicycle/v_Fixing_bicycle_id_Mlz94AtNJz8_start_97.5_label_1.mp4
76.01665616035461	2.0005929470062256	60.0	-1.0	0.5542869567871094	Hanging_wallpaper/v_Hanging_wallpaper_id_k5rmwxit5X0_start_26.5_label_1.mp4
84.01594495773315	2.00065016746521	4.0	1.0	0.6670761108398438	BMX/v_BMX_id_iEC04_j-Ua4_start_13.5_label_1.mp4
88.01561713218689	2.0004630088806152	118.0	1.0	0.4514119625091553	Powerbocking/v_Powerbocking_id_kjyS5nO0qRc_start_10.0_label_1.mp4
92.01525616645812	2.000431776046753	28.0	-1.0	0.6438219547271729	Cleaning_shoes/v_Cleaning_shoes_id_j9kvKpFLLD0_start_25.0_label_1.mp4
96.01487493515016	2.000498056411743	97.0	1.0	0.7642068862915039	Playing_congas/v_Playing_congas_id_wX7Seu6erCg_start_141.5_label_1.mp4
100.01466012001038	2.000403881072998	14.0	1.0	0.3644580841064453	Breakdancing/v_Breakdancing_id_xtPfTE2BQN0_start_55.5_label_1.mp4
108.01389813423155	2.017133951187134	169.0	-1.0	0.4205129146575928	Vacuuming_floor/v_Vacuuming_floor_id_1oeLKe1-2tY_start_15.0_label_1.mp4
112.01362204551695	2.0003020763397217	51.0	1.0	0.4455680847167969	Futsal/v_Futsal_id_WGuGAnfh24g_start_140.0_label_1.mp4
116.01324605941772	2.0004611015319824	57.0	1.0	0.4698910713195801	Hammer_throw/v_Hammer_throw_id_RLse8Sa-k8w_start_4.0_label_1.mp4
120.01290202140808	2.033827066421509	166.0	1.0	0.59676194190979	Using_the_pommel_horse/v_Using_the_pommel_horse_id_aAR1EaFyzDM_start_24.5_label_1.mp4
124.01254606246948	2.0340380668640137	107.0	1.0	0.5090970993041992	Playing_polo/v_Playing_polo_id_EXiyZK6HJ3A_start_29.0_label_1.mp4
132.01184511184692	2.000607967376709	123.0	-1.0	0.5511398315429688	Putting_on_shoes/v_Putting_on_shoes_id_Cv8VmRCERYc_start_8.0_label_1.mp4
136.01152801513672	2.033292055130005	174.0	-1.0	0.7026619911193848	Washing_hands/v_Washing_hands_id_1GOnfpJ5pss_start_94.5_label_1.mp4
140.01118302345276	2.000469923019409	66.0	1.0	0.6239409446716309	Hula_hoop/v_Hula_hoop_id_xHu9sb3sLbg_start_16.0_label_1.mp4
144.01079511642456	2.000473022460937	138.0	-1.0	0.6402220726013184	Shuffleboard/v_Shuffleboard_id_v1GAuFL5oeE_start_71.0_label_1.mp4
148.01051807403564	2.000586032867432	145.0	1.0	0.528548002243042	Snow_tubing/v_Snow_tubing_id_b0mr4doJI1s_start_82.5_label_1.mp4
156.00980710983276	2.0339159965515137	45.0	-1.0	0.6159219741821289	Drinking_coffee/v_Drinking_coffee_id_2TRcFpytYT8_start_51.5_label_1.mp4
160.00948810577393	1.99981689453125	41.0	1.0	0.6420769691467285	Doing_kickboxing/v_Doing_kickboxing_id_OSFpah4za0I_start_17.5_label_1.mp4
164.00912499427795	2.050339937210083	117.0	-1.0	0.4799439907073974	Polishing_shoes/v_Polishing_shoes_id_CRVrmgbzT4I_start_164.5_label_1.mp4
168.00881695747375	2.017122983932495	93.0	1.0	0.4496159553527832	Playing_badminton/v_Playing_badminton_id_SKWigzcQoJQ_start_101.5_label_1.mp4
172.00889706611633	2.016645908355713	98.0	-1.0	0.577970027923584	Playing_drums/v_Playing_drums_id_1ID1rtsoqrE_start_6.5_label_1.mp4
180.00777101516724	2.0003750324249268	100.0	-1.0	0.6033530235290527	Playing_flauta/v_Playing_flauta_id_ByhWLPfDfAU_start_1.0_label_1.mp4
184.00743007659912	2.017090082168579	47.0	1.0	0.4831259250640869	Elliptical_trainer/v_Elliptical_trainer_id_Y_ikE_9EOsM_start_32.5_label_1.mp4
188.00685000419617	2.017341136932373	109.0	1.0	0.6274149417877197	Playing_racquetball/v_Playing_racquetball_id_znhraVlHvh4_start_82.5_label_1.mp4
192.00630807876587	2.017564058303833	131.0	1.0	0.6276350021362305	Running_a_marathon/v_Running_a_marathon_id_3w0Lw4naldM_start_44.0_label_1.mp4
196.02307605743408	2.000437021255493	70.0	1.0	0.580035924911499	Javelin_throw/v_Javelin_throw_id_p2Hx_-HXk_M_start_1.5_label_1.mp4
204.02240800857544	2.000460147857666	175.0	1.0	0.5007679462432861	Waterskiing/v_Waterskiing_id_tKhrUF0pMWI_start_47.0_label_1.mp4
208.0220940113068	2.0004451274871826	80.0	-1.0	0.5330510139465332	Making_a_sandwich/v_Making_a_sandwich_id_mzffdYp1aWc_start_78.0_label_1.mp4
212.02172708511355	2.000722885131836	143.0	-1.0	0.6694228649139404	Smoking_hookah/v_Smoking_hookah_id_eMFZhcdu0ic_start_5.5_label_1.mp4
216.021409034729	2.0003650188446045	139.0	1.0	0.6617550849914551	Skateboarding/v_Skateboarding_id_aWh5QZE8HFg_start_13.5_label_1.mp4
220.021047115326	2.000403881072998	44.0	1.0	0.6382310390472412	Doing_step_aerobics/v_Doing_step_aerobics_id_t1wyr7R_374_start_48.0_label_1.mp4
228.02036595344543	2.0004451274871826	157.0	1.0	0.5748140811920166	Tango/v_Tango_id_P4VLsvtJSDM_start_4.5_label_1.mp4
232.01995706558228	2.0341250896453857	81.0	-1.0	0.5655310153961182	Making_an_omelette/v_Making_an_omelette_id_c5BM2OtkSX4_start_33.0_label_1.mp4
236.0196750164032	2.000488042831421	91.0	1.0	0.6074590682983398	Plataform_diving/v_Plataform_diving_id_4OjpWhen20U_start_110.0_label_1.mp4
240.0193271636963	2.000441789627075	158.0	1.0	0.8238279819488525	Throwing_darts/v_Throwing_darts_id_UAU0TWI1mpo_start_23.0_label_1.mp4
244.01868104934687	2.000772953033448	75.0	-1.0	0.5520799160003662	Laying_tile/v_Laying_tile_id_jAt8CrMPguk_start_39.5_label_1.mp4
252.01825714111328	2.000501871109009	17.0	-1.0	0.5447981357574463	Building_sandcastles/v_Building_sandcastles_id_TsjMhDCFOSM_start_3.0_label_1.mp4
256.01797914505005	2.000255823135376	129.0	1.0	0.4173729419708252	Rollerblading/v_Rollerblading_id_tFJLObgV5rY_start_7.0_label_1.mp4
260.01776695251465	2.0335400104522705	50.0	-1.0	0.5281891822814941	Fun_sliding_down/v_Fun_sliding_down_id_x_dtJq0RTvg_start_54.5_label_1.mp4
264.0172669887543	2.000516176223755	153.0	-1.0	0.5938229560852051	Swimming/v_Swimming_id_8DRZw1Sblb0_start_47.5_label_1.mp4
268.0169401168823	2.03434681892395	61.0	-1.0	0.6085641384124756	Having_an_ice_cream/v_Having_an_ice_cream_id_674t-jyyKeg_start_6.0_label_1.mp4
276.01626801490784	2.0338480472564697	68.0	-1.0	0.5937271118164062	Ice_fishing/v_Ice_fishing_id_DFfgUuCRLew_start_83.5_label_1.mp4
280.01588201522827	2.000486135482788	172.0	-1.0	0.5473260879516602	Walking_the_dog/v_Walking_the_dog_id_4i5PfOEvMxM_start_6.0_label_1.mp4
284.01563906669617	2.0003550052642822	102.0	-1.0	0.5157339572906494	Playing_harmonica/v_Playing_harmonica_id_WjobYy-BHUM_start_14.0_label_1.mp4
288.01528000831604	2.0338950157165527	87.0	-1.0	0.8106510639190674	Painting_fence/v_Painting_fence_id_qHXTO7PIwIg_start_130.5_label_1.mp4
292.01485109329224	2.000438928604126	42.0	1.0	0.532433032989502	Doing_motocross/v_Doing_motocross_id_Y0Jc4a9Pdwk_start_65.0_label_1.mp4
