onset	duration	trial_type	response	response_time	stim_file
12.015147924423218	2.066673994064331	114.0	1.0	0.3234181404113769	Playing_water_polo/v_Playing_water_polo_id_e-otSbIxkIY_start_36.0_label_1.mp4
16.014834880828857	2.0004889965057373	108.0	1.0	0.3662919998168945	Playing_pool/v_Playing_pool_id__qVCzwVDn8w_start_57.5_label_1.mp4
20.014408826828003	2.034121036529541	120.0	n/a	n/a	Preparing_salad/v_Preparing_salad_id_HXbavfAj9lg_start_24.0_label_1.mp4
24.014128923416138	2.000418901443481	1.0	1.0	0.3747940063476562	Archery/v_Archery_id_Rp2cC3rGk1M_start_50.0_label_1.mp4
28.01382088661194	2.0004420280456543	7.0	-1.0	0.3832900524139404	Bathing_dog/v_Bathing_dog_id_yla8VyIPh5w_start_147.0_label_1.mp4
36.013108015060425	2.000483989715576	92.0	-1.0	0.3918659687042236	Playing_accordion/v_Playing_accordion_id_FRsjoFn7qkU_start_42.0_label_1.mp4
40.01277685165405	2.000718116760254	167.0	1.0	0.4719839096069336	Using_the_rowing_machine/v_Using_the_rowing_machine_id_wozM9Es0st8_start_39.5_label_1.mp4
44.012388944625854	2.000312089920044	2.0	1.0	0.3845329284667969	Arm_wrestling/v_Arm_wrestling_id_Lvul1RsNmL8_start_16.5_label_1.mp4
48.01210689544678	2.000440120697021	137.0	n/a	n/a	Shoveling_snow/v_Shoveling_snow_id_eC3_cmHb5tU_start_43.0_label_1.mp4
52.01181101799011	2.000281810760498	41.0	1.0	0.3934948444366455	Doing_kickboxing/v_Doing_kickboxing_id_pgrNyHwbsJQ_start_4.0_label_1.mp4
60.0110330581665	2.0171217918396	86.0	n/a	n/a	Painting/v_Painting_id_MKNMQY0kWSE_start_188.0_label_1.mp4
64.01073503494263	2.017223834991455	117.0	-1.0	0.3695981502532959	Polishing_shoes/v_Polishing_shoes_id_gl1sY6sHu5g_start_46.5_label_1.mp4
68.0104079246521	2.017102003097534	155.0	n/a	n/a	Table_soccer/v_Table_soccer_id_U34YSb3OKaM_start_2.5_label_1.mp4
72.00975394248962	2.000978946685791	3.0	-1.0	0.5230059623718262	Assembling_bicycle/v_Assembling_bicycle_id_jwITexVooeo_start_17.0_label_1.mp4
76.00976300239563	2.016921043395996	66.0	1.0	0.4186580181121826	Hula_hoop/v_Hula_hoop_id_3wELvsZzGBA_start_73.0_label_1.mp4
84.00912499427795	2.00039291381836	11.0	-1.0	0.3879721164703369	Belly_dance/v_Belly_dance_id_z7n37HSWb5I_start_103.5_label_1.mp4
88.00871086120605	2.017098188400269	147.0	1.0	0.4517240524291992	Spinning/v_Spinning_id_8DrV-8SZpyk_start_6.5_label_1.mp4
92.0083348751068	2.017143964767456	146.0	1.0	0.4201388359069824	Snowboarding/v_Snowboarding_id_VflsEXwwAmM_start_17.0_label_1.mp4
96.008043050766	2.0171048641204834	123.0	-1.0	0.5563549995422363	Putting_on_shoes/v_Putting_on_shoes_id_rl7ulNxyqxU_start_46.0_label_1.mp4
100.02436685562134	2.0004701614379883	59.0	n/a	n/a	Hand_washing_clothes/v_Hand_washing_clothes_id_zMtpWi-wg1M_start_28.5_label_1.mp4
108.00705194473268	2.0003199577331543	119.0	-1.0	0.3340740203857422	Preparing_pasta/v_Preparing_pasta_id_LSBGJXCJrsM_start_34.0_label_1.mp4
112.00676584243774	2.016968011856079	153.0	1.0	0.4218029975891113	Swimming/v_Swimming_id_c0YxEXGaWcw_start_4.5_label_1.mp4
116.0229799747467	2.0004959106445312	26.0	-1.0	0.4700710773468017	Chopping_wood/v_Chopping_wood_id_sZ_XjMB3FU0_start_70.5_label_1.mp4
120.02266883850098	2.0003981590271	44.0	1.0	0.4864411354064941	Doing_step_aerobics/v_Doing_step_aerobics_id_oO2OJg-Hr_E_start_15.5_label_1.mp4
124.02236986160278	2.000478029251098	67.0	-1.0	0.518887996673584	Hurling/v_Hurling_id_layJLvvxczc_start_6.0_label_1.mp4
132.02160787582395	1.9840011596679688	110.0	-1.0	0.5360720157623291	Playing_rubik_cube/v_Playing_rubik_cube_id_bpkyH28l2-0_start_14.0_label_1.mp4
136.0212869644165	2.000452041625977	175.0	n/a	n/a	Waterskiing/v_Waterskiing_id_HqfZWLPUr7M_start_6.0_label_1.mp4
140.0209448337555	2.0003581047058105	15.0	n/a	n/a	Brushing_hair/v_Brushing_hair_id_vaW-n0VQSgo_start_44.0_label_1.mp4
144.02069401741028	2.000360012054444	180.0	1.0	0.5846531391143799	Zumba/v_Zumba_id_IeeAawxZmVw_start_75.5_label_1.mp4
148.02030682563782	2.0002570152282715	142.0	n/a	n/a	Smoking_a_cigarette/v_Smoking_a_cigarette_id_uxkv0oIoN1c_start_147.5_label_1.mp4
156.01963901519775	2.000394821166992	131.0	1.0	0.4016420841217041	Running_a_marathon/v_Running_a_marathon_id_787r7mu4AuI_start_6.0_label_1.mp4
160.01925897598267	2.0004680156707764	8.0	1.0	0.5139129161834717	Baton_twirling/v_Baton_twirling_id_U5y9s3G9Y_Q_start_35.0_label_1.mp4
164.01895785331726	2.0005459785461426	170.0	1.0	0.4421060085296631	Volleyball/v_Volleyball_id_QYs4h0cSeC8_start_148.5_label_1.mp4
168.01861000061035	2.0005600452423096	163.0	n/a	n/a	Using_parallel_bars/v_Using_parallel_bars_id_Kl6YGJLCZ8Y_start_22.0_label_1.mp4
172.01828503608704	2.00039291381836	89.0	1.0	0.3710119724273681	Ping-pong/v_Ping-pong_id_IdghwVqNCRk_start_92.5_label_1.mp4
180.0175998210907	2.0004332065582275	96.0	n/a	n/a	Playing_blackjack/v_Playing_blackjack_id_ZHDjymMz5QU_start_32.5_label_1.mp4
184.0173029899597	2.0005218982696533	159.0	n/a	n/a	Trimming_branches_or_hedges/v_Trimming_branches_or_hedges_id_SXhiGEYtPXg_start_67.0_label_1.mp4
188.01691389083865	2.0005271434783936	134.0	n/a	n/a	Sharpening_knives/v_Sharpening_knives_id_FuD6I1IjzF8_start_2.0_label_1.mp4
192.01664185523987	2.000378131866455	148.0	n/a	n/a	Spread_mulch/v_Spread_mulch_id_0AW-16dWWjI_start_167.5_label_1.mp4
196.01627397537231	2.000508069992065	45.0	-1.0	0.4289519786834717	Drinking_coffee/v_Drinking_coffee_id_Il6gSxVLRNE_start_19.0_label_1.mp4
204.01560497283936	2.0340070724487305	107.0	1.0	0.3244500160217285	Playing_polo/v_Playing_polo_id_K-B9CIVeQ_U_start_33.0_label_1.mp4
208.01531195640564	2.000279903411865	87.0	-1.0	0.4140210151672363	Painting_fence/v_Painting_fence_id_mGLI1srh4iA_start_72.0_label_1.mp4
212.0149178504944	2.000211000442505	52.0	-1.0	0.8705549240112305	Getting_a_haircut/v_Getting_a_haircut_id_cq46eUwuIqs_start_94.5_label_1.mp4
216.0145649909973	2.0358660221099854	38.0	1.0	0.4993760585784912	Doing_crunches/v_Doing_crunches_id_pRZtHcCwQbs_start_51.5_label_1.mp4
220.01424503326416	2.000548839569092	97.0	-1.0	0.3911299705505371	Playing_congas/v_Playing_congas_id_fSJDHJKBJWo_start_4.5_label_1.mp4
228.01377487182617	2.0002691745758057	37.0	1.0	0.3837130069732666	Dodgeball/v_Dodgeball_id_QjAcVc5MrPw_start_4.0_label_1.mp4
232.0132298469544	2.000514030456543	71.0	1.0	0.6640570163726807	Kayaking/v_Kayaking_id__D0WuWkmaTM_start_26.0_label_1.mp4
236.0130159854889	2.000229835510254	165.0	n/a	n/a	Using_the_monkey_bar/v_Using_the_monkey_bar_id_GeTNs2mPayw_start_69.0_label_1.mp4
240.0125679969788	2.0003139972686768	63.0	-1.0	0.4410250186920166	Hitting_a_pinata/v_Hitting_a_pinata_id_iVgwKMhT6fk_start_10.5_label_1.mp4
244.0122208595276	2.000591993331909	101.0	-1.0	0.5050978660583496	Playing_guitarra/v_Playing_guitarra_id_QhBj1FS5sXY_start_113.0_label_1.mp4
252.01159286499023	2.0004191398620605	164.0	-1.0	0.3059060573577881	Using_the_balance_beam/v_Using_the_balance_beam_id_omCl9vCKJ_I_start_70.0_label_1.mp4
256.0112428665161	2.000354051589966	35.0	-1.0	0.3621029853820801	Disc_dog/v_Disc_dog_id_Zq45huBwYn4_start_34.0_label_1.mp4
260.01089096069336	2.00052809715271	40.0	-1.0	0.4023020267486572	Doing_karate/v_Doing_karate_id_0tGXp9xSrZA_start_115.0_label_1.mp4
264.01054883003235	2.000648021697998	174.0	-1.0	0.4347941875457763	Washing_hands/v_Washing_hands_id__MHTTX1ztkA_start_47.0_label_1.mp4
268.01023292541504	2.00048303604126	58.0	-1.0	0.3871989250183105	Hand_car_wash/v_Hand_car_wash_id_G64dkn3Ac7M_start_49.0_label_1.mp4
276.00953698158264	2.000540018081665	116.0	-1.0	0.3638298511505127	Polishing_forniture/v_Polishing_forniture_id_i5a6yR2Ng6I_start_3.0_label_1.mp4
280.00922083854675	2.017081022262573	19.0	-1.0	0.843555212020874	Bungee_jumping/v_Bungee_jumping_id_2aBfRGuyYNM_start_35.0_label_1.mp4
284.0096778869629	1.9995970726013184	62.0	1.0	0.6928210258483887	High_jump/v_High_jump_id_IYS5OmWXldg_start_42.0_label_1.mp4
288.0085248947144	1.9999761581420896	168.0	n/a	n/a	Using_uneven_bars/v_Using_uneven_bars_id_6_szJmr6erg_start_11.0_label_1.mp4
292.0082359313965	2.01690411567688	129.0	1.0	0.364656925201416	Rollerblading/v_Rollerblading_id_TS7okmk7HT8_start_75.5_label_1.mp4
