onset	duration	trial_type	response	response_time	stim_file
12.01508092880249	2.0672740936279297	144.0	1.0	0.4547469615936279	Snatch/v_Snatch_id_u_RzyIJi8qc_start_49.0_label_1.mp4
16.01476001739502	2.0003819465637207	158.0	-1.0	0.3619430065155029	Throwing_darts/v_Throwing_darts_id_lP5PmMwxWy4_start_5.5_label_1.mp4
20.014421939849854	2.0006611347198486	6.0	-1.0	0.4741780757904053	Ballet/v_Ballet_id_HrCEW_37mR0_start_187.0_label_1.mp4
24.014067888259888	2.0339300632476807	125.0	-1.0	0.4331190586090088	Raking_leaves/v_Raking_leaves_id_dmoydg9oBJM_start_29.5_label_1.mp4
28.01378107070923	2.0001728534698486	16.0	-1.0	0.3632187843322754	Brushing_teeth/v_Brushing_teeth_id_PkiDOKZQJJw_start_44.0_label_1.mp4
36.01308989524841	2.0004000663757324	143.0	-1.0	0.4355649948120117	Smoking_hookah/v_Smoking_hookah_id_eQFzhAS5_Po_start_109.5_label_1.mp4
40.01272988319397	2.000554084777832	179.0	n/a	n/a	Wrapping_presents/v_Wrapping_presents_id_oKGMuHkIZXg_start_4.0_label_1.mp4
44.01239705085754	2.00058388710022	90.0	n/a	n/a	Plastering/v_Plastering_id_o1rMbECOwDY_start_98.0_label_1.mp4
48.0121340751648	2.0003628730773926	55.0	n/a	n/a	Grooming_dog/v_Grooming_dog_id_FWhSI4R_6fo_start_38.0_label_1.mp4
52.011837005615234	2.0001819133758545	18.0	1.0	0.380990982055664	Bullfighting/v_Bullfighting_id_qdl2p_rj0Po_start_32.5_label_1.mp4
60.01107406616211	2.0006299018859863	9.0	1.0	0.4216868877410888	Beach_soccer/v_Beach_soccer_id_dKyjVGpPTBQ_start_14.5_label_1.mp4
64.01043701171875	2.000248908996582	115.0	1.0	0.2304651737213134	Pole_vault/v_Pole_vault_id_ncK8dwkmYCU_start_34.5_label_1.mp4
68.01035690307617	2.0333240032196045	127.0	1.0	0.4134521484375	Rock_climbing/v_Rock_climbing_id_OFwRb8WI940_start_32.5_label_1.mp4
72.01002597808838	2.050442934036255	124.0	1.0	0.3485879898071289	Rafting/v_Rafting_id_BGJg4QRFhNg_start_84.5_label_1.mp4
76.00972104072571	2.0167839527130127	73.0	1.0	0.3746941089630127	Kneeling/v_Kneeling_id_i17HfUn3M-g_start_4.5_label_1.mp4
84.00900292396545	2.000749111175537	76.0	1.0	0.1756479740142822	Long_jump/v_Long_jump_id_YVf3dXTpjZQ_start_3.0_label_1.mp4
88.00865507125854	2.017133951187134	126.0	-1.0	0.4073600769042969	Riding_bumper_cars/v_Riding_bumper_cars_id_YEt5Gs9cGhI_start_18.0_label_1.mp4
92.00806498527528	2.0509400367736816	81.0	-1.0	0.3821649551391601	Making_an_omelette/v_Making_an_omelette_id_VFUmqXwlD0E_start_62.0_label_1.mp4
96.00802898406982	2.0170490741729736	85.0	1.0	0.4161100387573242	Paintball/v_Paintball_id_sKXGDQPGO9k_start_130.0_label_1.mp4
100.00781106948853	2.0168378353118896	21.0	-1.0	0.4004549980163574	Camel_ride/v_Camel_ride_id_nWazW9KnmvQ_start_3.0_label_1.mp4
108.02366089820862	1.9837431907653809	152.0	1.0	0.3218398094177246	Surfing/v_Surfing_id_lBmpmR7EtmM_start_18.5_label_1.mp4
112.00669407844543	2.0171449184417725	83.0	n/a	n/a	Mooping_floor/v_Mooping_floor_id_H96JEw6G13I_start_3.5_label_1.mp4
116.00587391853333	2.0509700775146484	171.0	1.0	0.4244539737701416	Wakeboarding/v_Wakeboarding_id_1idmkApWVXA_start_31.0_label_1.mp4
120.00620293617249	2.016948938369751	162.0	1.0	0.4261410236358642	Tumbling/v_Tumbling_id_dn4JJWYqHSI_start_47.5_label_1.mp4
124.02230286598206	2.0004470348358154	139.0	1.0	0.3865749835968017	Skateboarding/v_Skateboarding_id_7smnHxEYhmU_start_101.5_label_1.mp4
132.0216429233551	1.9839680194854736	140.0	1.0	0.4118390083312988	Skiing/v_Skiing_id_2WrAhQGTero_start_72.0_label_1.mp4
136.0213119983673	2.000480890274048	34.0	n/a	n/a	Decorating_the_Christmas_tree/v_Decorating_the_Christmas_tree_id_Gl7IFolQlMk_start_24.0_label_1.mp4
140.02093696594238	2.033822059631348	149.0	1.0	0.3945269584655761	Springboard_diving/v_Springboard_diving_id_Ip4tCndSoLY_start_19.0_label_1.mp4
144.02061796188354	2.0005970001220703	141.0	1.0	0.4201719760894775	Slacklining/v_Slacklining_id_Xa6AAqUdHjk_start_18.5_label_1.mp4
148.02030396461487	2.0005340576171875	33.0	-1.0	0.3564479351043701	Cutting_the_grass/v_Cutting_the_grass_id_HiuZEW8nFN0_start_40.0_label_1.mp4
156.0196499824524	2.0002601146698	68.0	-1.0	0.4533631801605224	Ice_fishing/v_Ice_fishing_id_fzXkYhX6TJw_start_21.0_label_1.mp4
160.01926708221436	2.000523805618286	106.0	-1.0	0.5335519313812256	Playing_piano/v_Playing_piano_id_agcfl1Ou6ao_start_49.5_label_1.mp4
164.0188980102539	2.0004050731658936	51.0	1.0	0.3499190807342529	Futsal/v_Futsal_id_O91vcDbUnnI_start_80.0_label_1.mp4
168.01860094070437	2.000463962554932	157.0	1.0	0.3742430210113525	Tango/v_Tango_id_m63FQjkRC0I_start_33.0_label_1.mp4
172.01823902130127	2.0004379749298096	78.0	-1.0	0.334662914276123	Making_a_cake/v_Making_a_cake_id_qTMKjYyw-qA_start_89.5_label_1.mp4
180.01756501197815	2.033859968185425	72.0	1.0	0.397892951965332	Kite_flying/v_Kite_flying_id_orBa4mP2srY_start_84.5_label_1.mp4
184.0172929763794	2.0003840923309326	166.0	1.0	0.4157052040100097	Using_the_pommel_horse/v_Using_the_pommel_horse_id_ISZcoTB2fG4_start_4.0_label_1.mp4
188.01696109771729	2.000452995300293	50.0	-1.0	0.3519980907440185	Fun_sliding_down/v_Fun_sliding_down_id_aQCMxyxugq8_start_15.0_label_1.mp4
192.0165750980377	2.000504970550537	74.0	-1.0	0.3603441715240478	Knitting/v_Knitting_id_LE9AXqUuHVU_start_81.0_label_1.mp4
196.0162329673767	2.000553131103516	56.0	-1.0	0.3767249584197998	Grooming_horse/v_Grooming_horse_id_gnDcQiJdeeA_start_102.0_label_1.mp4
204.0155959129333	2.0001161098480225	49.0	-1.0	0.4656281471252441	Fixing_the_roof/v_Fixing_the_roof_id_x9ZdLZOf2Ro_start_50.0_label_1.mp4
208.0152518749237	2.0340051651000977	75.0	-1.0	0.4722921848297119	Laying_tile/v_Laying_tile_id_IWoJFp_EPqY_start_64.0_label_1.mp4
212.0148470401764	2.000478029251098	77.0	1.0	0.4020721912384033	Longboarding/v_Longboarding_id_NEihHGzzyOs_start_7.5_label_1.mp4
216.014573097229	2.000553846359253	24.0	n/a	n/a	Carving_jack-o-lanterns/v_Carving_jack-o-lanterns_id_72TQNZvWFJ4_start_46.0_label_1.mp4
220.01418709754944	2.000520944595337	98.0	-1.0	0.3627269268035888	Playing_drums/v_Playing_drums_id__1MAzwPXN9c_start_3.0_label_1.mp4
228.01353001594543	2.000447988510132	122.0	-1.0	0.4034759998321533	Putting_on_makeup/v_Putting_on_makeup_id_oznyX4gpTDQ_start_151.5_label_1.mp4
232.0132639408112	2.0009350776672363	32.0	-1.0	0.531419038772583	Croquet/v_Croquet_id_y8FHej7mA_g_start_27.5_label_1.mp4
236.01285195350647	2.0005900859832764	109.0	1.0	0.3880560398101806	Playing_racquetball/v_Playing_racquetball_id_om1MYCVWWVc_start_187.5_label_1.mp4
240.012512922287	2.0004711151123047	135.0	-1.0	0.4204871654510498	Shaving/v_Shaving_id_jkJ_ZvryipU_start_13.0_label_1.mp4
244.0121989250183	2.000333070755005	132.0	1.0	0.3568580150604248	Sailing/v_Sailing_id_xlexzR3yPKA_start_5.5_label_1.mp4
252.01153802871704	2.000396013259888	82.0	-1.0	0.3975260257720947	Mixing_drinks/v_Mixing_drinks_id_e_PH2Ok3zkE_start_42.5_label_1.mp4
256.0111789703369	2.0173799991607666	54.0	n/a	n/a	Getting_a_tattoo/v_Getting_a_tattoo_id_ROuV8x8ITeU_start_30.5_label_1.mp4
260.01091289520264	2.000570058822632	113.0	-1.0	0.4781429767608642	Playing_violin/v_Playing_violin_id_kh3RAwzATA4_start_46.0_label_1.mp4
264.01051688194275	1.9999680519104004	118.0	1.0	0.3589890003204345	Powerbocking/v_Powerbocking_id_fVoRT74ccm8_start_31.0_label_1.mp4
268.0102279186249	2.0504870414733887	136.0	1.0	0.364750862121582	Shot_put/v_Shot_put_id_RtN4Y_0BETk_start_9.0_label_1.mp4
276.0094769001007	2.000208139419556	64.0	-1.0	0.4639220237731933	Hopscotch/v_Hopscotch_id_ERTrFIzwT7I_start_53.5_label_1.mp4
280.0091369152069	2.000044107437134	27.0	1.0	0.4243760108947754	Clean_and_jerk/v_Clean_and_jerk_id_2z-7N-qCnyM_start_18.0_label_1.mp4
284.00881791114807	2.000012159347534	154.0	n/a	n/a	Swinging_at_the_playground/v_Swinging_at_the_playground_id_GrBsgBAvR8o_start_1.0_label_1.mp4
288.0084969997406	2.017086982727051	105.0	1.0	0.5840098857879639	Playing_lacrosse/v_Playing_lacrosse_id_XRAG7BsioXs_start_64.5_label_1.mp4
292.00786209106445	2.017429828643799	70.0	1.0	0.320322036743164	Javelin_throw/v_Javelin_throw_id_G2w5M4_R6q8_start_5.5_label_1.mp4
