onset	duration	trial_type	response	response_time	stim_file
12.021923065185549	2.1005029678344727	125.0	-1.0	0.4114751815795898	Raking_leaves/v_Raking_leaves_id_fh6Vv4f-75E_start_19.0_label_1.mp4
16.021589040756226	2.000571012496948	153.0	-1.0	0.4397399425506592	Swimming/v_Swimming_id_VfamutjiSwA_start_59.0_label_1.mp4
20.02125811576844	2.000571012496948	164.0	1.0	0.3680238723754883	Using_the_balance_beam/v_Using_the_balance_beam_id_bAqeXM07rWs_start_40.0_label_1.mp4
24.020879983901978	2.000600099563598	173.0	-1.0	0.3523578643798828	Washing_dishes/v_Washing_dishes_id_Q_lBCXCJfVY_start_65.5_label_1.mp4
28.020591020584103	2.000586032867432	107.0	-1.0	0.3767290115356445	Playing_polo/v_Playing_polo_id_EWMUt-oTLvg_start_13.0_label_1.mp4
36.02043294906616	1.999986171722412	70.0	1.0	0.449383020401001	Javelin_throw/v_Javelin_throw_id_HdTgIWR1AwE_start_7.5_label_1.mp4
40.01959896087647	2.000460147857666	8.0	1.0	0.4577968120574951	Baton_twirling/v_Baton_twirling_id_BRLQ35ZqwRU_start_12.0_label_1.mp4
44.01921010017395	2.000459909439087	130.0	1.0	0.3621058464050293	Rope_skipping/v_Rope_skipping_id_PY6ntDUyums_start_21.5_label_1.mp4
48.01891708374024	2.000200033187866	12.0	-1.0	0.3628151416778564	Blow-drying_hair/v_Blow-drying_hair_id_5tjCbs9lnmY_start_7.5_label_1.mp4
52.01870012283325	2.000516891479492	1.0	1.0	0.3308298587799072	Archery/v_Archery_id_8bmIlEP73Pw_start_16.0_label_1.mp4
60.01783108711243	2.0004379749298096	127.0	1.0	0.3954849243164062	Rock_climbing/v_Rock_climbing_id_2sz68hzpt7E_start_5.5_label_1.mp4
64.01749897003174	2.033782958984375	112.0	1.0	0.5624198913574219	Playing_squash/v_Playing_squash_id_kSjF-4l98hM_start_85.0_label_1.mp4
68.01717805862427	2.0004470348358154	120.0	-1.0	0.4361269474029541	Preparing_salad/v_Preparing_salad_id_q-dOd56WriI_start_171.5_label_1.mp4
72.01684594154358	2.000486135482788	45.0	-1.0	0.4364311695098877	Drinking_coffee/v_Drinking_coffee_id_MUOXkWL43Ro_start_10.0_label_1.mp4
76.01657700538635	2.000317096710205	165.0	1.0	0.3888859748840332	Using_the_monkey_bar/v_Using_the_monkey_bar_id_td4tRul_u5w_start_61.5_label_1.mp4
84.0158679485321	2.0004119873046875	80.0	-1.0	0.4375500679016113	Making_a_sandwich/v_Making_a_sandwich_id_I4D1rmYCrsE_start_43.0_label_1.mp4
88.0154960155487	2.000329971313477	117.0	-1.0	0.4058899879455566	Polishing_shoes/v_Polishing_shoes_id_4PiDlYoHrhs_start_9.0_label_1.mp4
92.01561093330383	1.999702215194702	149.0	1.0	0.7345080375671387	Springboard_diving/v_Springboard_diving_id_Gc5bTBMZflQ_start_110.0_label_1.mp4
96.01482892036438	2.000514030456543	116.0	-1.0	0.7584559917449951	Polishing_forniture/v_Polishing_forniture_id_NOrZMyIwcno_start_30.5_label_1.mp4
100.01445293426514	2.000601053237915	85.0	-1.0	0.4388759136199951	Paintball/v_Paintball_id_20M20DsFCNs_start_39.5_label_1.mp4
108.01375913619997	2.0004308223724365	27.0	1.0	0.3836228847503662	Clean_and_jerk/v_Clean_and_jerk_id_9-viU4a1aj8_start_80.0_label_1.mp4
112.0135109424591	2.000581979751587	33.0	-1.0	0.4477429389953613	Cutting_the_grass/v_Cutting_the_grass_id_rEWvrE-xmpA_start_123.0_label_1.mp4
116.01312112808228	2.000738859176636	69.0	-1.0	0.4801311492919922	Ironing_clothes/v_Ironing_clothes_id_xfFrdwOSlZk_start_94.0_label_1.mp4
120.01333498954772	2.033295154571533	51.0	1.0	0.3991849422454834	Futsal/v_Futsal_id_shhjKncgBCw_start_32.5_label_1.mp4
124.01245498657228	2.0338940620422363	15.0	-1.0	0.5515520572662354	Brushing_hair/v_Brushing_hair_id_CnTXLv1iEqs_start_32.0_label_1.mp4
132.01174092292786	2.000547170639038	72.0	-1.0	0.3217301368713379	Kite_flying/v_Kite_flying_id_vQMJ0bcRNSo_start_104.5_label_1.mp4
136.01147508621216	2.000393867492676	90.0	-1.0	0.4580740928649902	Plastering/v_Plastering_id_rEaL1c6eywM_start_37.0_label_1.mp4
140.01180696487427	1.9994380474090576	75.0	-1.0	0.4106159210205078	Laying_tile/v_Laying_tile_id_MBT5-8ML_X0_start_111.5_label_1.mp4
144.01075792312622	2.017131090164185	76.0	1.0	0.4019320011138916	Long_jump/v_Long_jump_id_fjnGpqu4euo_start_3.5_label_1.mp4
148.01042795181274	2.0009331703186035	47.0	1.0	0.4028341770172119	Elliptical_trainer/v_Elliptical_trainer_id_hG8wJNXzVoM_start_8.0_label_1.mp4
156.0097770690918	2.000341892242432	29.0	-1.0	0.3636689186096191	Cleaning_sink/v_Cleaning_sink_id_fhTOI4hB7so_start_7.5_label_1.mp4
160.00960111618042	2.000455856323242	119.0	-1.0	0.4596908092498779	Preparing_pasta/v_Preparing_pasta_id_FRn8B0Y3kMA_start_123.5_label_1.mp4
164.00879907608032	2.050770998001098	115.0	1.0	0.5622801780700684	Pole_vault/v_Pole_vault_id_E-SZquXIBOo_start_58.0_label_1.mp4
168.00883102416992	2.016979932785034	92.0	-1.0	0.4279708862304687	Playing_accordion/v_Playing_accordion_id_7PoAjag6yj4_start_45.0_label_1.mp4
172.0084400177002	2.0171000957489014	177.0	-1.0	0.4444079399108886	Welding/v_Welding_id_e3farI4qM34_start_7.0_label_1.mp4
180.00827407836914	1.9998629093170168	28.0	-1.0	0.3976461887359619	Cleaning_shoes/v_Cleaning_shoes_id_K_0HA8h2oWw_start_5.5_label_1.mp4
184.00742197036743	2.017261981964112	176.0	-1.0	0.4532589912414551	Waxing_skis/v_Waxing_skis_id_pMsPyAyPMMs_start_76.5_label_1.mp4
188.02373909950256	2.000422954559326	34.0	-1.0	0.5176370143890381	Decorating_the_Christmas_tree/v_Decorating_the_Christmas_tree_id_VjnmDdxTUJI_start_100.5_label_1.mp4
192.00681805610657	2.0503618717193604	26.0	-1.0	0.4365689754486084	Chopping_wood/v_Chopping_wood_id_H3_nPRXUlws_start_21.0_label_1.mp4
196.02307295799253	2.000396966934204	141.0	1.0	0.3983690738677978	Slacklining/v_Slacklining_id_fy09Q5Q9pSU_start_18.5_label_1.mp4
204.02236008644104	1.9837439060211184	166.0	1.0	0.3757181167602539	Using_the_pommel_horse/v_Using_the_pommel_horse_id_sb-C8Ah6kwU_start_7.5_label_1.mp4
208.0220000743866	2.0003879070281982	87.0	-1.0	0.4393610954284668	Painting_fence/v_Painting_fence_id_znYsbSk_HAc_start_56.0_label_1.mp4
212.02168893814087	2.00034499168396	18.0	1.0	0.351809024810791	Bullfighting/v_Bullfighting_id_HcnKxEa-Te8_start_32.5_label_1.mp4
216.021420955658	2.0004119873046875	132.0	1.0	0.4640290737152099	Sailing/v_Sailing_id_js_k5tVnJgY_start_79.5_label_1.mp4
220.02129006385803	2.0002529621124268	147.0	1.0	0.7843339443206787	Spinning/v_Spinning_id_WPHC4hCoHZA_start_3.5_label_1.mp4
228.02034401893616	2.000375986099243	36.0	1.0	0.4810731410980224	Discus_throw/v_Discus_throw_id_zcPkeWntPjI_start_6.0_label_1.mp4
232.0199720859528	2.000432014465332	2.0	-1.0	0.7933390140533447	Arm_wrestling/v_Arm_wrestling_id_egnJLj99Jbw_start_200.5_label_1.mp4
236.0200171470642	2.000114917755127	49.0	-1.0	0.4976990222930908	Fixing_the_roof/v_Fixing_the_roof_id_oPK9jsO3jzQ_start_150.0_label_1.mp4
240.0193281173706	2.0004498958587646	102.0	-1.0	0.3540949821472168	Playing_harmonica/v_Playing_harmonica_id_XHZBpu9vmSI_start_13.5_label_1.mp4
244.0190351009369	2.000434875488281	136.0	1.0	0.3624019622802734	Shot_put/v_Shot_put_id_tkPGpY0mIsk_start_114.0_label_1.mp4
252.01834201812744	2.0003459453582764	180.0	1.0	0.435154914855957	Zumba/v_Zumba_id_ugE62w16Jqk_start_64.5_label_1.mp4
256.0180039405823	2.0338971614837646	105.0	-1.0	0.3940770626068115	Playing_lacrosse/v_Playing_lacrosse_id_e7YBpDUQ_rk_start_19.5_label_1.mp4
260.01765513420105	2.000531911849976	95.0	1.0	0.2998139858245849	Playing_beach_volleyball/v_Playing_beach_volleyball_id_6hM7Gj_7Z4s_start_74.5_label_1.mp4
264.01741099357605	2.0003650188446045	68.0	-1.0	0.4042139053344726	Ice_fishing/v_Ice_fishing_id_5LrnNZsp7pM_start_9.5_label_1.mp4
268.0169219970703	2.000638008117676	22.0	1.0	0.3804349899291992	Canoeing/v_Canoeing_id_0e5ow_apksY_start_16.0_label_1.mp4
276.0162529945373	2.0001349449157715	86.0	-1.0	0.3815319538116455	Painting/v_Painting_id_02KENJOLWjw_start_8.0_label_1.mp4
280.01591300964355	2.00040602684021	42.0	1.0	0.4856090545654297	Doing_motocross/v_Doing_motocross_id_WgUNyz454x8_start_18.0_label_1.mp4
284.0155479907989	2.0336430072784424	9.0	1.0	0.340566873550415	Beach_soccer/v_Beach_soccer_id__vHB97LczX0_start_60.0_label_1.mp4
288.0152609348297	2.0004591941833496	138.0	-1.0	0.5261721611022949	Shuffleboard/v_Shuffleboard_id_2-mEEHAe9N0_start_10.0_label_1.mp4
292.01479411125183	2.00055193901062	23.0	1.0	0.3745708465576172	Capoeira/v_Capoeira_id_OhxL498Za-c_start_27.0_label_1.mp4
