onset	duration	trial_type	response	response_time	stim_file
12.01467990875244	2.067049026489258	18.0	1.0	0.6549990177154541	Bullfighting/v_Bullfighting_id_5zBCYNv_SH8_start_6.5_label_1.mp4
16.01429295539856	2.000573873519897	119.0	-1.0	0.5219211578369141	Preparing_pasta/v_Preparing_pasta_id_wcj80v67YJ4_start_88.5_label_1.mp4
20.01402378082276	2.000509023666382	135.0	-1.0	0.4583528041839599	Shaving/v_Shaving_id_yHIkoV5ngZ0_start_57.5_label_1.mp4
24.013401985168457	2.0006039142608643	7.0	-1.0	0.5308969020843506	Bathing_dog/v_Bathing_dog_id_Jtp-d9imdIE_start_58.5_label_1.mp4
28.01334381103516	2.000378131866455	91.0	-1.0	0.5551290512084961	Plataform_diving/v_Plataform_diving_id_Fnlh1GV7TXI_start_3.5_label_1.mp4
36.012688875198364	2.000452995300293	110.0	-1.0	0.9558930397033693	Playing_rubik_cube/v_Playing_rubik_cube_id_aT4VKBepc04_start_47.5_label_1.mp4
40.0122709274292	2.000601053237915	100.0	-1.0	0.436086893081665	Playing_flauta/v_Playing_flauta_id_szL4po7C7yo_start_84.5_label_1.mp4
44.01193380355835	2.000574111938477	4.0	1.0	1.348574161529541	BMX/v_BMX_id_AMe8H5aQp20_start_99.5_label_1.mp4
48.01163387298584	2.00040602684021	107.0	1.0	0.484882116317749	Playing_polo/v_Playing_polo_id_nbQDwaTS1IQ_start_152.0_label_1.mp4
52.01131296157837	2.000408887863159	142.0	-1.0	1.1492691040039062	Smoking_a_cigarette/v_Smoking_a_cigarette_id_Ez3AcXpNcV8_start_11.0_label_1.mp4
60.010639905929565	2.0004689693450928	31.0	1.0	0.4140679836273193	Cricket/v_Cricket_id_Phay_dcGBfw_start_78.0_label_1.mp4
64.01032400131226	2.000529766082764	49.0	-1.0	0.5023109912872314	Fixing_the_roof/v_Fixing_the_roof_id_H0gSWEElh6A_start_40.0_label_1.mp4
68.00997281074524	1.9999899864196773	153.0	1.0	0.4471499919891357	Swimming/v_Swimming_id_LLC_xA07taM_start_27.0_label_1.mp4
72.02603077888489	2.0380752086639404	114.0	1.0	0.3649837970733642	Playing_water_polo/v_Playing_water_polo_id_fVGn4luNLow_start_90.5_label_1.mp4
76.00893378257751	2.017993211746216	61.0	-1.0	0.3263201713562011	Having_an_ice_cream/v_Having_an_ice_cream_id_QIi0YTnxFtU_start_181.0_label_1.mp4
84.02538084983826	2.0030500888824463	50.0	-1.0	0.4794998168945312	Fun_sliding_down/v_Fun_sliding_down_id_Rh3KKUD7Ogs_start_98.5_label_1.mp4
88.02495384216309	2.0074970722198486	131.0	1.0	0.3678228855133056	Running_a_marathon/v_Running_a_marathon_id_tJ-rnMkmFb0_start_3.5_label_1.mp4
92.04131484031676	2.017665147781372	5.0	-1.0	0.3185479640960693	Baking_cookies/v_Baking_cookies_id_Zk62c0nmcr4_start_86.0_label_1.mp4
96.00731086730956	2.017333984375	111.0	-1.0	0.6806998252868652	Playing_saxophone/v_Playing_saxophone_id_Rwdr8yfhcRY_start_36.0_label_1.mp4
100.00742077827454	2.016829013824463	103.0	1.0	0.4809598922729492	Playing_ice_hockey/v_Playing_ice_hockey_id_ZbrQsxEkOUo_start_87.0_label_1.mp4
108.023206949234	1.983194828033448	143.0	-1.0	0.9870040416717528	Smoking_hookah/v_Smoking_hookah_id_thy_Hdq_HZQ_start_74.5_label_1.mp4
112.02295780181883	2.0337209701538086	90.0	-1.0	0.5366909503936768	Plastering/v_Plastering_id__smuivhiOvA_start_62.0_label_1.mp4
116.02256798744202	2.000385999679565	179.0	-1.0	0.522367000579834	Wrapping_presents/v_Wrapping_presents_id_ymZI-uwhXfU_start_22.5_label_1.mp4
120.02227282524107	2.0005910396575928	112.0	1.0	0.554826021194458	Playing_squash/v_Playing_squash_id_unx9HHsvzLE_start_7.0_label_1.mp4
124.02203178405762	2.000335216522217	32.0	1.0	0.3791911602020263	Croquet/v_Croquet_id_YgalB_Kc23E_start_69.0_label_1.mp4
132.0212688446045	2.0005581378936768	51.0	1.0	0.5557651519775391	Futsal/v_Futsal_id_66ZheN2zrGs_start_13.0_label_1.mp4
136.0209469795227	2.0006139278411865	33.0	-1.0	0.5322189331054688	Cutting_the_grass/v_Cutting_the_grass_id_ciFssw9Ly_0_start_12.0_label_1.mp4
140.02427887916565	2.013267040252685	116.0	-1.0	0.4761409759521484	Polishing_forniture/v_Polishing_forniture_id_ChZTXEzTUMo_start_24.5_label_1.mp4
144.02025389671326	2.000586986541748	125.0	-1.0	0.4692671298980713	Raking_leaves/v_Raking_leaves_id_ftAxawkoVxQ_start_38.0_label_1.mp4
148.01990795135498	2.001121997833252	144.0	1.0	0.5167999267578125	Snatch/v_Snatch_id_gSrAOkfXPK0_start_13.5_label_1.mp4
156.01922583580017	2.000411033630371	177.0	-1.0	0.5099959373474121	Welding/v_Welding_id_a4Pznf8MfLc_start_81.0_label_1.mp4
160.01888799667358	2.0003628730773926	174.0	-1.0	0.5024769306182861	Washing_hands/v_Washing_hands_id_dJeYXsJzgkk_start_23.5_label_1.mp4
164.01855397224426	2.0004868507385254	44.0	-1.0	0.6467759609222412	Doing_step_aerobics/v_Doing_step_aerobics_id_1Abl7JhWLlU_start_28.5_label_1.mp4
168.0182659626007	2.0005359649658203	117.0	-1.0	0.8791041374206543	Polishing_shoes/v_Polishing_shoes_id_v2OejjO5FJ8_start_58.5_label_1.mp4
172.01788592338562	2.0004470348358154	156.0	-1.0	1.023525953292847	Tai_chi/v_Tai_chi_id_5BnaoiG8qig_start_102.0_label_1.mp4
180.01725578308103	2.000251054763794	99.0	1.0	0.7283201217651367	Playing_field_hockey/v_Playing_field_hockey_id_KHCjzDASuTc_start_13.5_label_1.mp4
184.01686787605288	2.0003740787506104	45.0	-1.0	1.0725440979003906	Drinking_coffee/v_Drinking_coffee_id_kYqh5rykNHY_start_20.5_label_1.mp4
188.0165078639984	2.000509023666382	57.0	1.0	0.7129809856414795	Hammer_throw/v_Hammer_throw_id_Yx7b4UMRja4_start_5.5_label_1.mp4
192.0161409378052	2.0005810260772705	15.0	-1.0	0.4891629219055176	Brushing_hair/v_Brushing_hair_id_Yi4S5HmURBI_start_82.5_label_1.mp4
196.01584577560425	2.0337491035461426	106.0	-1.0	0.4003579616546631	Playing_piano/v_Playing_piano_id_dWhid0YvFGo_start_23.5_label_1.mp4
204.015172958374	2.00055193901062	150.0	-1.0	0.4503819942474365	Starting_a_campfire/v_Starting_a_campfire_id_yyuQPvYaoHw_start_10.0_label_1.mp4
208.01481699943545	2.0005338191986084	82.0	-1.0	0.4346640110015869	Mixing_drinks/v_Mixing_drinks_id_wZYSakotrWw_start_129.5_label_1.mp4
212.0144968032837	2.033653974533081	170.0	1.0	0.6178350448608398	Volleyball/v_Volleyball_id_T36Jrd_ot-M_start_54.5_label_1.mp4
216.0141749382019	2.000527858734131	102.0	-1.0	0.5315580368041992	Playing_harmonica/v_Playing_harmonica_id_VD7MnnkgtwA_start_45.0_label_1.mp4
220.0144798755645	2.0183699131011963	154.0	1.0	0.6591460704803467	Swinging_at_the_playground/v_Swinging_at_the_playground_id_y5sHhS5d1xo_start_7.5_label_1.mp4
228.0127279758453	2.0176479816436768	56.0	-1.0	0.4438369274139404	Grooming_horse/v_Grooming_horse_id_1aLmozS7so4_start_74.5_label_1.mp4
232.0295188426972	2.000535011291504	129.0	1.0	0.8682858943939209	Rollerblading/v_Rollerblading_id_7ir3DZ1MngQ_start_27.0_label_1.mp4
236.0127069950104	2.0166678428649902	34.0	-1.0	0.5329501628875732	Decorating_the_Christmas_tree/v_Decorating_the_Christmas_tree_id_0tufasbFqqs_start_145.0_label_1.mp4
240.01218795776367	1.999809980392456	160.0	1.0	0.4382500648498535	Triple_jump/v_Triple_jump_id_KuHYDPRiplA_start_12.0_label_1.mp4
244.01177382469177	2.000349998474121	16.0	-1.0	0.6140408515930176	Brushing_teeth/v_Brushing_teeth_id_3dRicYz75og_start_47.5_label_1.mp4
252.027489900589	2.001462936401367	22.0	1.0	0.5174531936645508	Canoeing/v_Canoeing_id_i0CnLI9EObo_start_10.0_label_1.mp4
256.02750277519226	2.000502109527588	158.0	-1.0	0.5904488563537598	Throwing_darts/v_Throwing_darts_id_d5jNUZCbk-w_start_49.5_label_1.mp4
260.02715277671814	2.03775405883789	85.0	-1.0	0.7618241310119629	Paintball/v_Paintball_id_SyNsewvAM-8_start_24.5_label_1.mp4
264.0435769557953	2.0005619525909424	151.0	1.0	0.5849339962005615	Sumo/v_Sumo_id_DWnlhux-wZk_start_24.5_label_1.mp4
268.0264718532562	2.0005271434783936	95.0	1.0	0.5676369667053223	Playing_beach_volleyball/v_Playing_beach_volleyball_id_6vu9oty43B8_start_68.5_label_1.mp4
276.0257818698883	1.9832429885864256	23.0	1.0	0.4414620399475097	Capoeira/v_Capoeira_id_f6hO8wE-pCM_start_24.0_label_1.mp4
280.00872588157654	2.017159938812256	178.0	1.0	0.4966068267822265	Windsurfing/v_Windsurfing_id_vFhdtsos18Y_start_102.5_label_1.mp4
284.0084958076477	2.017080068588257	55.0	-1.0	0.385106086730957	Grooming_dog/v_Grooming_dog_id_PZ02qkZ9e0Q_start_16.0_label_1.mp4
288.0081148147583	2.017155170440674	176.0	-1.0	0.3292858600616455	Waxing_skis/v_Waxing_skis_id_uj3u8SF8BOI_start_75.0_label_1.mp4
292.0077497959137	2.017548084259033	167.0	1.0	0.8173160552978516	Using_the_rowing_machine/v_Using_the_rowing_machine_id_eifY17JjZIU_start_3.5_label_1.mp4
