onset	duration	trial_type	response	response_time	stim_file
12.015215873718262	2.0672309398651123	57.0	1.0	0.6940839290618896	Hammer_throw/v_Hammer_throw_id_gWr-Ch6Qm44_start_43.0_label_1.mp4
16.014957904815674	2.0004560947418213	73.0	1.0	0.3771059513092041	Kneeling/v_Kneeling_id_wQksw34EwPQ_start_66.5_label_1.mp4
20.01457977294922	1.999850034713745	133.0	-1.0	0.330043077468872	Scuba_diving/v_Scuba_diving_id_LpvjtpZi0u8_start_114.5_label_1.mp4
24.013977766036987	2.001410007476806	68.0	1.0	0.5532588958740234	Ice_fishing/v_Ice_fishing_id_DCr1AX5Rcw0_start_104.0_label_1.mp4
28.013866901397705	2.000505924224853	61.0	-1.0	0.266244888305664	Having_an_ice_cream/v_Having_an_ice_cream_id_f5Yobu4OiXc_start_28.5_label_1.mp4
36.013447999954224	2.000530958175659	168.0	1.0	0.8352029323577881	Using_uneven_bars/v_Using_uneven_bars_id_LHFmiLYIsu4_start_8.5_label_1.mp4
40.01281976699829	2.000725030899048	78.0	-1.0	1.123093843460083	Making_a_cake/v_Making_a_cake_id_yqEeP1acj4Y_start_46.0_label_1.mp4
44.0124979019165	2.033309936523437	47.0	1.0	0.5707130432128906	Elliptical_trainer/v_Elliptical_trainer_id_IccH7kFPhnw_start_24.5_label_1.mp4
48.01216983795166	2.000478029251098	94.0	-1.0	0.7559120655059814	Playing_bagpipes/v_Playing_bagpipes_id_aEZ-DWsP0c8_start_79.0_label_1.mp4
52.01178789138794	2.000317096710205	10.0	-1.0	0.8764550685882568	Beer_pong/v_Beer_pong_id_eLLFupj_hiI_start_32.5_label_1.mp4
60.01112484931946	2.0171189308166504	108.0	1.0	1.0443339347839355	Playing_pool/v_Playing_pool_id_Vqf2CRaSV20_start_1.0_label_1.mp4
64.0107889175415	2.000743865966797	122.0	n/a	n/a	Putting_on_makeup/v_Putting_on_makeup_id_LmJgdaS_q5Q_start_107.5_label_1.mp4
68.01048588752747	2.016907930374145	77.0	-1.0	0.0008509159088134	Longboarding/v_Longboarding_id_igOuQ4R8JFc_start_114.5_label_1.mp4
72.0101068019867	2.0339131355285645	25.0	1.0	0.3724970817565918	Cheerleading/v_Cheerleading_id_iQ3WLtwJLA4_start_157.0_label_1.mp4
76.00980591773987	2.017035007476806	105.0	1.0	0.3176851272583008	Playing_lacrosse/v_Playing_lacrosse_id_h-_dzZ3cCfc_start_107.0_label_1.mp4
84.0092887878418	2.000319004058838	138.0	1.0	0.4391589164733886	Shuffleboard/v_Shuffleboard_id_dn1qHekCTkM_start_3.5_label_1.mp4
88.00886797904968	2.016976833343506	86.0	-1.0	0.7906949520111084	Painting/v_Painting_id_IMx6egwGYyc_start_71.5_label_1.mp4
92.0084547996521	2.0171170234680176	71.0	1.0	0.3349580764770508	Kayaking/v_Kayaking_id_rQB95PD2VWU_start_11.0_label_1.mp4
96.00811195373537	2.050478935241699	146.0	1.0	0.4940848350524902	Snowboarding/v_Snowboarding_id_PTWdlmwlCNg_start_25.0_label_1.mp4
100.00773596763612	2.0171899795532227	17.0	-1.0	0.9356210231781006	Building_sandcastles/v_Building_sandcastles_id_fpUD8tuuJ5o_start_47.0_label_1.mp4
108.02408981323242	2.016414165496826	175.0	1.0	0.8399629592895508	Waterskiing/v_Waterskiing_id_UYplB-mAo7k_start_61.0_label_1.mp4
112.0233907699585	1.9998230934143064	72.0	-1.0	1.0172021389007568	Kite_flying/v_Kite_flying_id_tPZawLH4Okc_start_5.0_label_1.mp4
116.02307176589966	2.000469207763672	140.0	1.0	0.4971668720245361	Skiing/v_Skiing_id_TM2oX2quLHk_start_7.5_label_1.mp4
120.02269077301024	2.0005550384521484	117.0	-1.0	0.5133731365203857	Polishing_shoes/v_Polishing_shoes_id_3HgMb8C1Sik_start_6.5_label_1.mp4
124.02241778373718	2.00016713142395	32.0	-1.0	0.7300221920013428	Croquet/v_Croquet_id_toshvYDwJ4E_start_40.0_label_1.mp4
132.0217399597168	1.9831368923187256	55.0	-1.0	0.4115419387817383	Grooming_dog/v_Grooming_dog_id_jsm0oDhtssY_start_23.0_label_1.mp4
136.0214138031006	2.000725030899048	6.0	-1.0	0.466606855392456	Ballet/v_Ballet_id_u_5ATot0FmQ_start_30.5_label_1.mp4
140.02099895477295	2.0004570484161377	31.0	1.0	0.4191548824310303	Cricket/v_Cricket_id_112sR_bn43Y_start_1.5_label_1.mp4
144.02075099945068	2.000487804412842	81.0	-1.0	0.8274838924407959	Making_an_omelette/v_Making_an_omelette_id_lhVOkEZDNPc_start_119.5_label_1.mp4
148.0203537940979	2.000519037246704	161.0	-1.0	1.8118300437927248	Tug_of_war/v_Tug_of_war_id_8qxpmQw4exU_start_188.5_label_1.mp4
156.01972484588623	2.0004770755767822	165.0	1.0	0.5163888931274414	Using_the_monkey_bar/v_Using_the_monkey_bar_id_O0GLY9oqsqs_start_7.5_label_1.mp4
160.0194149017334	2.000478029251098	69.0	-1.0	0.4606990814208984	Ironing_clothes/v_Ironing_clothes_id_cyeBGj6iyug_start_2.0_label_1.mp4
164.01905179023743	2.0001060962677	145.0	-1.0	0.5095250606536865	Snow_tubing/v_Snow_tubing_id_XXJwQA8nBFQ_start_9.5_label_1.mp4
168.01867198944092	2.000450849533081	5.0	-1.0	0.4455909729003906	Baking_cookies/v_Baking_cookies_id_VRV5tMrSBA0_start_114.0_label_1.mp4
172.01840591430664	2.000807046890259	20.0	1.0	0.789788007736206	Calf_roping/v_Calf_roping_id_O2-mzPaKjok_start_3.0_label_1.mp4
180.0177788734436	2.0007989406585693	87.0	-1.0	0.5343179702758789	Painting_fence/v_Painting_fence_id_VmRxwGVsF_8_start_147.5_label_1.mp4
184.01757979393005	2.050218105316162	38.0	-1.0	0.6448349952697754	Doing_crunches/v_Doing_crunches_id_6fAyjN1nPCw_start_48.5_label_1.mp4
188.01707792282104	2.000419855117798	141.0	-1.0	0.8871479034423828	Slacklining/v_Slacklining_id_DMbn4B2bDW4_start_5.5_label_1.mp4
192.0166928768158	2.0011470317840576	111.0	-1.0	0.3349390029907226	Playing_saxophone/v_Playing_saxophone_id_Vq7h6YgLNfc_start_78.5_label_1.mp4
196.01640391349792	2.000349998474121	74.0	-1.0	0.3838179111480713	Knitting/v_Knitting_id_3pd68QLvUJ4_start_22.5_label_1.mp4
204.01582598686213	2.0001978874206543	96.0	-1.0	0.4325630664825439	Playing_blackjack/v_Playing_blackjack_id_MGOnKLd-yog_start_223.5_label_1.mp4
208.01531100273127	2.0003139972686768	83.0	n/a	n/a	Mooping_floor/v_Mooping_floor_id_9JI1vcgoHpI_start_65.5_label_1.mp4
212.0149908065796	2.0012521743774414	132.0	-1.0	0.6084940433502197	Sailing/v_Sailing_id_3lFiTVOm8_k_start_71.0_label_1.mp4
216.0146939754486	2.000670909881592	148.0	-1.0	0.4334390163421631	Spread_mulch/v_Spread_mulch_id_TEC9CgCSsYI_start_76.5_label_1.mp4
220.014399766922	2.0007832050323486	88.0	-1.0	0.4894578456878662	Painting_furniture/v_Painting_furniture_id_laGM7zMDJk8_start_83.0_label_1.mp4
228.01366996765137	2.0004827976226807	22.0	-1.0	0.4025759696960449	Canoeing/v_Canoeing_id_x2G2mTJXbuE_start_77.0_label_1.mp4
232.013386964798	2.0004689693450928	149.0	1.0	0.4190981388092041	Springboard_diving/v_Springboard_diving_id__2ffyglYI04_start_4.0_label_1.mp4
236.01296877861023	2.000655174255371	52.0	-1.0	0.4832069873809814	Getting_a_haircut/v_Getting_a_haircut_id_eCDGWmA6gyc_start_18.0_label_1.mp4
240.01268577575684	2.000408172607422	60.0	-1.0	0.0006320476531982	Hanging_wallpaper/v_Hanging_wallpaper_id_rXwqbHHmxhA_start_16.0_label_1.mp4
244.01261377334595	2.0331151485443115	171.0	1.0	0.4829130172729492	Wakeboarding/v_Wakeboarding_id_9MQY5W4PX3M_start_58.0_label_1.mp4
252.01182079315183	2.0001931190490723	154.0	-1.0	0.3808200359344482	Swinging_at_the_playground/v_Swinging_at_the_playground_id_4vSU8WMNyO0_start_14.5_label_1.mp4
256.0113368034363	2.033804178237915	152.0	1.0	0.3875019550323486	Surfing/v_Surfing_id_1CifXuR-D1E_start_156.5_label_1.mp4
260.0109977722168	2.017094135284424	125.0	-1.0	0.564608097076416	Raking_leaves/v_Raking_leaves_id_pmENQo3oyPk_start_5.0_label_1.mp4
264.0107288360596	1.9999189376831048	159.0	-1.0	0.565946102142334	Trimming_branches_or_hedges/v_Trimming_branches_or_hedges_id_shLUZZS9oYc_start_11.5_label_1.mp4
268.0102949142456	2.017164945602417	127.0	-1.0	1.0533170700073242	Rock_climbing/v_Rock_climbing_id_kiQe60AmSEs_start_110.0_label_1.mp4
276.00964283943176	2.0170960426330566	41.0	1.0	0.6220149993896484	Doing_kickboxing/v_Doing_kickboxing_id_JjaWEVLhslY_start_10.0_label_1.mp4
280.0093319416046	2.0171239376068115	172.0	-1.0	0.8623390197753906	Walking_the_dog/v_Walking_the_dog_id_DN9gQNgCekI_start_38.5_label_1.mp4
284.00898790359497	2.017091989517212	110.0	1.0	1.5186889171600342	Playing_rubik_cube/v_Playing_rubik_cube_id_6Kn7y6ZpeBQ_start_69.5_label_1.mp4
288.00862193107605	2.000133991241455	100.0	-1.0	0.472088098526001	Playing_flauta/v_Playing_flauta_id_y4zQf-jVkYI_start_38.5_label_1.mp4
292.0082948207855	2.01684308052063	27.0	1.0	0.4795351028442383	Clean_and_jerk/v_Clean_and_jerk_id__nnIGYSTsro_start_7.0_label_1.mp4
