onset	duration	trial_type	response	response_time	stim_file
12.015308856964111	2.0672290325164795	52.0	-1.0	0.5786750316619873	Getting_a_haircut/v_Getting_a_haircut_id_sjFtn77FESo_start_66.5_label_1.mp4
16.01495099067688	2.000673055648804	111.0	-1.0	0.6695520877838135	Playing_saxophone/v_Playing_saxophone_id_FY9SBUxRLYQ_start_50.0_label_1.mp4
20.014641046524048	2.0006139278411865	30.0	-1.0	0.4459888935089111	Cleaning_windows/v_Cleaning_windows_id_tioZuk52-2A_start_1.0_label_1.mp4
24.01429295539856	2.0007989406585693	32.0	1.0	0.2942900657653808	Croquet/v_Croquet_id_zBI9i2yysew_start_76.5_label_1.mp4
28.01392602920532	2.051086902618408	77.0	-1.0	0.500356912612915	Longboarding/v_Longboarding_id_5pQQt5YzVgo_start_4.5_label_1.mp4
36.01325583457947	2.0007212162017822	71.0	1.0	0.2952120304107666	Kayaking/v_Kayaking_id_8vaEIzvY5rA_start_12.0_label_1.mp4
40.01297402381897	2.000419855117798	106.0	-1.0	0.1117441654205322	Playing_piano/v_Playing_piano_id_IhGEmLgZhKk_start_6.0_label_1.mp4
44.01263403892517	2.000746965408325	161.0	-1.0	0.2240059375762939	Tug_of_war/v_Tug_of_war_id_s1ifrnkwoYU_start_11.0_label_1.mp4
48.01229405403137	2.017169952392578	27.0	1.0	0.2477760314941406	Clean_and_jerk/v_Clean_and_jerk_id_hEjT-uLpkhY_start_42.5_label_1.mp4
52.01196384429932	2.0001320838928223	39.0	1.0	0.3212161064147949	Doing_fencing/v_Doing_fencing_id_9HTL3jwEd_s_start_19.0_label_1.mp4
60.01125383377075	2.000518083572388	176.0	-1.0	0.1774230003356933	Waxing_skis/v_Waxing_skis_id_ZfHseABfWpQ_start_64.0_label_1.mp4
64.010910987854	1.9998488426208496	91.0	1.0	0.0822429656982421	Plataform_diving/v_Plataform_diving_id_XnsA1bJXclI_start_1.0_label_1.mp4
68.01057291030884	2.000296115875244	141.0	1.0	0.2025370597839355	Slacklining/v_Slacklining_id_PJs7jq4Mt0M_start_19.0_label_1.mp4
72.0102698802948	2.016956090927124	59.0	-1.0	0.0004291534423828	Hand_washing_clothes/v_Hand_washing_clothes_id_lMtXfwk7PXg_start_172.5_label_1.mp4
76.00990700721741	2.017088890075684	137.0	-1.0	0.1140940189361572	Shoveling_snow/v_Shoveling_snow_id_t_mLT5cE9ms_start_16.5_label_1.mp4
84.00919985771179	2.000732183456421	68.0	-1.0	0.2514228820800781	Ice_fishing/v_Ice_fishing_id_cZcfzX0cTYo_start_46.0_label_1.mp4
88.00893998146057	2.0167698860168457	154.0	-1.0	0.3394839763641357	Swinging_at_the_playground/v_Swinging_at_the_playground_id_SMv-RhuDtZg_start_29.5_label_1.mp4
92.00858187675476	2.0170681476593018	16.0	-1.0	0.1394851207733154	Brushing_teeth/v_Brushing_teeth_id_2FW4UaxTTEo_start_138.0_label_1.mp4
96.008220911026	2.0170679092407227	127.0	1.0	0.4998869895935058	Rock_climbing/v_Rock_climbing_id_48MOHE7XEGk_start_35.0_label_1.mp4
100.00787782669067	2.0170910358428955	153.0	1.0	0.28420090675354	Swimming/v_Swimming_id_U4NztaSDeFA_start_11.0_label_1.mp4
108.02390193939208	1.983792066574097	13.0	-1.0	0.1656110286712646	Braiding_hair/v_Braiding_hair_id_ckvbAG26_PQ_start_6.5_label_1.mp4
112.0068678855896	2.017119169235229	124.0	1.0	0.2532010078430176	Rafting/v_Rafting_id_Mma6QrFGKCk_start_24.0_label_1.mp4
116.02325201034546	2.033728837966919	9.0	-1.0	0.6602160930633545	Beach_soccer/v_Beach_soccer_id_rN-XGRCEbEU_start_19.5_label_1.mp4
120.02287697792052	2.000438928604126	155.0	-1.0	0.3339629173278808	Table_soccer/v_Table_soccer_id_km5_yC9FKhw_start_16.0_label_1.mp4
124.02251386642456	2.000185012817383	25.0	-1.0	5.078541994094849	Cheerleading/v_Cheerleading_id_SunkWoo03jI_start_84.5_label_1.mp4
132.0218379497528	1.9837620258331297	180.0	1.0	0.2796089649200439	Zumba/v_Zumba_id_76KhG6wOTwc_start_86.5_label_1.mp4
136.02153182029724	2.0004751682281494	14.0	1.0	0.319242000579834	Breakdancing/v_Breakdancing_id_TLtSfYX8tJk_start_51.0_label_1.mp4
140.0212140083313	2.0005199909210205	65.0	-1.0	0.2795121669769287	Horseback_riding/v_Horseback_riding_id_Pey0fJQ0OGQ_start_6.0_label_1.mp4
144.0209128856659	2.000331163406372	84.0	-1.0	0.2800657749176025	Mowing_the_lawn/v_Mowing_the_lawn_id_fDZYGsXQAks_start_76.0_label_1.mp4
148.02054405212402	2.0005719661712646	175.0	-1.0	0.328251838684082	Waterskiing/v_Waterskiing_id_9nzvPYdsjMY_start_174.5_label_1.mp4
156.01985692977905	2.000416040420532	7.0	1.0	0.1449701786041259	Bathing_dog/v_Bathing_dog_id_zYmP1naYoCY_start_22.0_label_1.mp4
160.01947903633118	2.0005688667297363	87.0	-1.0	0.1933071613311767	Painting_fence/v_Painting_fence_id_Q_hspQIFvdk_start_104.0_label_1.mp4
164.0191478729248	2.033786058425904	58.0	-1.0	0.0005960464477539	Hand_car_wash/v_Hand_car_wash_id_ZfNriJk7wM4_start_94.5_label_1.mp4
168.01885199546814	2.0003879070281982	115.0	n/a	n/a	Pole_vault/v_Pole_vault_id_xy_8YdVD63w_start_134.0_label_1.mp4
172.01847290992737	2.033411979675293	160.0	1.0	0.4254250526428222	Triple_jump/v_Triple_jump_id_Zg7VF9DrhjY_start_21.0_label_1.mp4
180.01781797409058	2.000295877456665	34.0	-1.0	0.2589690685272217	Decorating_the_Christmas_tree/v_Decorating_the_Christmas_tree_id_LA4UtpADA0E_start_4.5_label_1.mp4
184.0174479484558	2.000786066055298	118.0	1.0	0.2832119464874267	Powerbocking/v_Powerbocking_id_R_WeqaINtP4_start_110.0_label_1.mp4
188.0171549320221	2.033731937408448	105.0	1.0	0.1624879837036132	Playing_lacrosse/v_Playing_lacrosse_id_xbZTkc4W8aU_start_100.0_label_1.mp4
192.016783952713	2.00063705444336	63.0	-1.0	0.1160070896148681	Hitting_a_pinata/v_Hitting_a_pinata_id_SNT9XCxveQI_start_11.5_label_1.mp4
196.01641392707825	2.000683069229126	45.0	-1.0	0.3004379272460937	Drinking_coffee/v_Drinking_coffee_id_j-SjTy1YySU_start_8.5_label_1.mp4
204.0160748958588	2.0001790523529053	6.0	1.0	0.4531059265136719	Ballet/v_Ballet_id_bYOA0G5AaCY_start_10.0_label_1.mp4
208.0154368877411	2.0338690280914307	162.0	1.0	0.3720500469207763	Tumbling/v_Tumbling_id_7yxVn6DmzG8_start_29.5_label_1.mp4
212.01506304740903	2.0006589889526367	60.0	n/a	n/a	Hanging_wallpaper/v_Hanging_wallpaper_id_sPI-uguyvlg_start_129.0_label_1.mp4
216.01476192474365	2.0004210472106934	43.0	-1.0	0.1662650108337402	Doing_nails/v_Doing_nails_id_9Rd8PpfRNmY_start_55.5_label_1.mp4
220.0144338607788	2.0004589557647705	1.0	1.0	0.1585359573364257	Archery/v_Archery_id_XaEiyGFskAI_start_83.0_label_1.mp4
228.0137529373169	2.0004100799560547	56.0	-1.0	0.3191468715667724	Grooming_horse/v_Grooming_horse_id_9kCAm-rEJNU_start_72.0_label_1.mp4
232.01336789131165	2.000654935836792	62.0	1.0	0.3754279613494873	High_jump/v_High_jump_id_rrVupaZuLJc_start_2.0_label_1.mp4
236.01301884651184	2.000056028366089	41.0	n/a	n/a	Doing_kickboxing/v_Doing_kickboxing_id_L4C9otDaet4_start_103.0_label_1.mp4
240.0127499103546	2.0006749629974365	104.0	1.0	0.0005581378936767	Playing_kickball/v_Playing_kickball_id_oOesC8eDoAA_start_11.5_label_1.mp4
244.0123779773712	2.034285068511963	48.0	-1.0	0.2949669361114502	Fixing_bicycle/v_Fixing_bicycle_id_aJ4P6Y81w0I_start_63.5_label_1.mp4
252.01165890693665	2.0338330268859863	113.0	-1.0	0.2399499416351318	Playing_violin/v_Playing_violin_id_nQXQ_S1Bch4_start_97.5_label_1.mp4
256.01136684417725	2.000308036804199	179.0	-1.0	0.3540470600128174	Wrapping_presents/v_Wrapping_presents_id_3GQ4G7_BRbY_start_150.0_label_1.mp4
260.0110249519348	2.0332069396972656	136.0	1.0	0.393090009689331	Shot_put/v_Shot_put_id_pKtV5Cq6i9s_start_18.5_label_1.mp4
264.0106899738312	1.999974012374878	19.0	1.0	1.0907230377197266	Bungee_jumping/v_Bungee_jumping_id_JYxTkqGNeAI_start_38.0_label_1.mp4
268.0103659629822	2.0005428791046143	74.0	-1.0	0.978492021560669	Knitting/v_Knitting_id_iJ0s_2TBwCQ_start_78.5_label_1.mp4
276.0097289085388	2.000396013259888	51.0	1.0	0.403372049331665	Futsal/v_Futsal_id_sopnDuwNkOM_start_15.0_label_1.mp4
280.0093619823456	2.01702094078064	134.0	-1.0	0.3149111270904541	Sharpening_knives/v_Sharpening_knives_id_CEgEsWfwQcw_start_83.0_label_1.mp4
284.0256199836731	2.000537872314453	57.0	1.0	0.6191999912261963	Hammer_throw/v_Hammer_throw_id_AOgA9L-D6I8_start_5.5_label_1.mp4
288.0086998939514	2.0337750911712646	54.0	-1.0	0.3628919124603271	Getting_a_tattoo/v_Getting_a_tattoo_id_WR5gK2m07w4_start_46.0_label_1.mp4
292.0083439350128	2.017148017883301	70.0	1.0	0.3239610195159912	Javelin_throw/v_Javelin_throw_id_sRITSQH0cpo_start_4.5_label_1.mp4
