onset	duration	trial_type	response	response_time	stim_file
12.01490592956543	2.066790103912353	51.0	1.0	0.5543348789215088	Futsal/v_Futsal_id_tILcmwJCNGw_start_12.0_label_1.mp4
16.014636039733887	2.00056791305542	65.0	-1.0	0.4050891399383545	Horseback_riding/v_Horseback_riding_id_CBnjzj3AKJ8_start_135.0_label_1.mp4
20.014317989349365	2.000571012496948	176.0	-1.0	0.645291805267334	Waxing_skis/v_Waxing_skis_id_pMsPyAyPMMs_start_73.5_label_1.mp4
24.013983011245728	2.0004079341888428	169.0	-1.0	0.365703821182251	Vacuuming_floor/v_Vacuuming_floor_id_wWGbAL2jvcs_start_1.0_label_1.mp4
28.01364207267761	2.0005807876586914	134.0	-1.0	0.3420090675354004	Sharpening_knives/v_Sharpening_knives_id_suPqich636U_start_22.0_label_1.mp4
36.01292085647583	2.000600099563598	8.0	1.0	0.7427160739898682	Baton_twirling/v_Baton_twirling_id_nz0XQWePVIY_start_15.0_label_1.mp4
40.0125699043274	2.0006749629974365	2.0	-1.0	0.527122974395752	Arm_wrestling/v_Arm_wrestling_id_zY-xL6Hru48_start_52.5_label_1.mp4
44.01220107078552	2.050408840179444	13.0	-1.0	0.4053261280059814	Braiding_hair/v_Braiding_hair_id_kyhPJqW01p8_start_60.0_label_1.mp4
48.01187992095947	2.0003840923309326	146.0	1.0	0.3518440723419189	Snowboarding/v_Snowboarding_id_h2cQIGYmwMY_start_31.0_label_1.mp4
52.01159405708313	1.9999659061431885	62.0	1.0	0.5446310043334961	High_jump/v_High_jump_id___XefpA3z5s_start_8.5_label_1.mp4
60.01084589958191	2.000274181365967	139.0	-1.0	0.4088590145111084	Skateboarding/v_Skateboarding_id_7XEbp4eo_UU_start_23.0_label_1.mp4
64.0105390548706	2.000562906265259	126.0	-1.0	0.4092569351196289	Riding_bumper_cars/v_Riding_bumper_cars_id_uGTFwC3WIJk_start_22.0_label_1.mp4
68.01017785072327	2.0341830253601074	129.0	1.0	0.3766109943389892	Rollerblading/v_Rollerblading_id_FdOyOkjbotM_start_18.0_label_1.mp4
72.00985789299011	2.0170931816101074	54.0	-1.0	0.3691871166229248	Getting_a_tattoo/v_Getting_a_tattoo_id_E9hG4rEiFVw_start_37.0_label_1.mp4
76.00954103469849	2.0001299381256104	79.0	-1.0	0.4746308326721191	Making_a_lemonade/v_Making_a_lemonade_id_deuSw3RnNLU_start_56.5_label_1.mp4
84.00877904891968	2.000605821609497	164.0	1.0	0.3548119068145752	Using_the_balance_beam/v_Using_the_balance_beam_id_joRvRdqSAE8_start_73.0_label_1.mp4
88.00845098495483	2.0171470642089844	141.0	1.0	0.410517930984497	Slacklining/v_Slacklining_id_LPe7YZUom_A_start_42.0_label_1.mp4
92.00813794136047	2.017072916030884	115.0	1.0	0.3790512084960937	Pole_vault/v_Pole_vault_id_Ug6KYNFmp3o_start_2.0_label_1.mp4
96.00780701637268	2.017065048217773	100.0	-1.0	0.3952610492706299	Playing_flauta/v_Playing_flauta_id_CZHIJmSeaRg_start_56.5_label_1.mp4
100.0074610710144	2.0171029567718506	121.0	-1.0	0.6676077842712402	Putting_in_contact_lenses/v_Putting_in_contact_lenses_id_aAXaeISuvxQ_start_33.0_label_1.mp4
108.00685095787048	2.000476121902466	144.0	1.0	0.3168931007385254	Snatch/v_Snatch_id_FeI83fwNzNA_start_109.0_label_1.mp4
112.00599694252014	2.01754093170166	111.0	-1.0	0.3246750831604004	Playing_saxophone/v_Playing_saxophone_id_D9tQXsaWLnc_start_32.5_label_1.mp4
116.02276992797852	2.000314950942993	66.0	1.0	0.3250179290771484	Hula_hoop/v_Hula_hoop_id_vw3GKeeewwk_start_12.5_label_1.mp4
120.0223879814148	2.000360012054444	24.0	-1.0	0.1492691040039062	Carving_jack-o-lanterns/v_Carving_jack-o-lanterns_id_TkdV_ryUCnA_start_56.0_label_1.mp4
124.02211499214172	2.0005130767822266	155.0	-1.0	0.3257310390472412	Table_soccer/v_Table_soccer_id_iBtur5sp0OE_start_6.5_label_1.mp4
132.02137398719788	1.9833409786224363	94.0	-1.0	0.6714849472045898	Playing_bagpipes/v_Playing_bagpipes_id__R7qnELmw-0_start_49.5_label_1.mp4
136.0210518836975	2.000488042831421	41.0	1.0	0.4626519680023193	Doing_kickboxing/v_Doing_kickboxing_id_KsDNEG7fd_0_start_155.5_label_1.mp4
140.02072095870972	2.0002999305725098	97.0	-1.0	0.3990428447723388	Playing_congas/v_Playing_congas_id_xmbKtgNrDkE_start_2.5_label_1.mp4
144.02037405967712	2.0004589557647705	33.0	-1.0	0.343358039855957	Cutting_the_grass/v_Cutting_the_grass_id_L-A8RECKhtQ_start_70.5_label_1.mp4
148.02007293701172	2.0005249977111816	153.0	-1.0	0.4156968593597412	Swimming/v_Swimming_id_35fgqmj30tc_start_45.0_label_1.mp4
156.01937294006348	2.000469923019409	46.0	-1.0	0.3363540172576904	Drum_corps/v_Drum_corps_id_17eEAQb9M6I_start_86.0_label_1.mp4
160.01901602745056	2.000443935394287	17.0	-1.0	0.4167611598968506	Building_sandcastles/v_Building_sandcastles_id_CTL3tq1WKHw_start_12.5_label_1.mp4
164.01869297027588	2.000582933425904	20.0	1.0	0.3450231552124023	Calf_roping/v_Calf_roping_id_Z9zyDoh_g9E_start_2.5_label_1.mp4
168.01838397979736	2.000575065612793	152.0	1.0	0.3453891277313232	Surfing/v_Surfing_id_Grki1hie8QQ_start_148.0_label_1.mp4
172.0180149078369	2.0004119873046875	133.0	-1.0	0.2977521419525146	Scuba_diving/v_Scuba_diving_id_gmYCrK2dRaI_start_46.5_label_1.mp4
180.01730108261108	2.000440835952759	177.0	-1.0	0.4344720840454101	Welding/v_Welding_id_NaAeWcS0bK4_start_10.5_label_1.mp4
184.0169608592987	2.0338501930236816	36.0	1.0	0.4173099994659424	Discus_throw/v_Discus_throw_id_E0fa4ghZdS4_start_2.0_label_1.mp4
188.01661086082456	2.000603199005127	123.0	-1.0	0.3150820732116699	Putting_on_shoes/v_Putting_on_shoes_id_Y82dz6aTwJ0_start_25.5_label_1.mp4
192.01629090309143	2.000439167022705	151.0	1.0	0.3316049575805664	Sumo/v_Sumo_id_th5qpGUlBnc_start_11.5_label_1.mp4
196.0159468650818	2.000473022460937	120.0	-1.0	0.4037630558013916	Preparing_salad/v_Preparing_salad_id_njMtD7Hnlb8_start_76.0_label_1.mp4
204.0152349472046	2.000504970550537	77.0	1.0	0.4125180244445801	Longboarding/v_Longboarding_id_3T-RQfAOizc_start_3.0_label_1.mp4
208.0149040222168	2.000454902648926	50.0	-1.0	0.4848790168762207	Fun_sliding_down/v_Fun_sliding_down_id_BMfgpbKAoBY_start_1.0_label_1.mp4
212.01460003852844	2.0003390312194824	92.0	-1.0	0.3973050117492676	Playing_accordion/v_Playing_accordion_id_Q5_9xLoEMNM_start_56.5_label_1.mp4
216.01424193382263	2.0337281227111816	60.0	-1.0	0.3482511043548584	Hanging_wallpaper/v_Hanging_wallpaper_id_rZJTlJS11UM_start_61.5_label_1.mp4
220.0139398574829	2.0005152225494385	67.0	1.0	0.4778339862823486	Hurling/v_Hurling_id_ThY4KL0Y018_start_45.0_label_1.mp4
228.013179063797	2.000576972961426	114.0	1.0	0.6705090999603271	Playing_water_polo/v_Playing_water_polo_id_bTzACIMDU_Q_start_44.5_label_1.mp4
232.01287293434143	1.9502661228179927	80.0	-1.0	0.505159854888916	Making_a_sandwich/v_Making_a_sandwich_id_1aEVj_rWMYw_start_2.5_label_1.mp4
236.01251101493835	2.0342490673065186	166.0	1.0	0.4137980937957763	Using_the_pommel_horse/v_Using_the_pommel_horse_id_zBMIGGpouAU_start_26.0_label_1.mp4
240.01217699050903	2.0337889194488525	122.0	-1.0	0.3583230972290039	Putting_on_makeup/v_Putting_on_makeup_id_w0YL5ypZrR8_start_42.0_label_1.mp4
244.011834859848	2.000663042068481	135.0	-1.0	0.3999121189117431	Shaving/v_Shaving_id_tP30Os9naLI_start_15.0_label_1.mp4
252.01113295555115	2.0006110668182373	42.0	1.0	0.4007501602172851	Doing_motocross/v_Doing_motocross_id_QB3-yYt0g6o_start_72.0_label_1.mp4
256.01084208488464	2.000610828399658	35.0	1.0	0.5609438419342041	Disc_dog/v_Disc_dog_id_DFPr5AYzc0E_start_45.5_label_1.mp4
260.01046800613403	2.000077962875366	95.0	1.0	0.4097859859466553	Playing_beach_volleyball/v_Playing_beach_volleyball_id_iWexOR4MWoQ_start_50.0_label_1.mp4
264.01016306877136	2.0171539783477783	73.0	1.0	0.4331750869750976	Kneeling/v_Kneeling_id_-3Q3n9MbHgs_start_16.0_label_1.mp4
268.00977993011475	2.0003700256347656	142.0	-1.0	0.5142290592193604	Smoking_a_cigarette/v_Smoking_a_cigarette_id_hTRuHWj4N5U_start_2.5_label_1.mp4
276.0091750621796	2.000187873840332	131.0	1.0	0.3390729427337646	Running_a_marathon/v_Running_a_marathon_id_gf5K0SQFzkQ_start_3.0_label_1.mp4
280.0087649822235	2.017148971557617	145.0	1.0	0.4903619289398193	Snow_tubing/v_Snow_tubing_id_cc2f56ZmNpE_start_11.0_label_1.mp4
284.008446931839	2.050373077392578	159.0	-1.0	0.3933629989624023	Trimming_branches_or_hedges/v_Trimming_branches_or_hedges_id_2QtOJ9nvw1w_start_99.5_label_1.mp4
288.0080900192261	2.017163038253784	168.0	1.0	0.4190719127655029	Using_uneven_bars/v_Using_uneven_bars_id_pJEOK1DbTfU_start_12.5_label_1.mp4
292.0077738761902	2.01711106300354	68.0	-1.0	0.4994421005249023	Ice_fishing/v_Ice_fishing_id_jRqea0l-h_o_start_36.0_label_1.mp4
