onset	duration	trial_type	response	response_time	stim_file
12.01513695716858	2.0665361881256104	99.0	1.0	0.419774055480957	Playing_field_hockey/v_Playing_field_hockey_id_144BIVEJjhY_start_10.0_label_1.mp4
16.01464605331421	2.000591993331909	124.0	1.0	0.3902947902679443	Rafting/v_Rafting_id_OvnR0BVjWfQ_start_14.5_label_1.mp4
20.014456033706665	2.0004029273986816	135.0	-1.0	0.3266859054565429	Shaving/v_Shaving_id_4IsbRXxbgz0_start_26.0_label_1.mp4
24.01411199569702	2.000462055206299	154.0	-1.0	0.3350811004638672	Swinging_at_the_playground/v_Swinging_at_the_playground_id_okDNBu07Klo_start_26.0_label_1.mp4
28.013811111450195	2.0002880096435547	173.0	-1.0	0.3594670295715332	Washing_dishes/v_Washing_dishes_id_3YMoihL8pLI_start_11.0_label_1.mp4
36.01313614845276	2.033782958984375	53.0	-1.0	0.3586320877075195	Getting_a_piercing/v_Getting_a_piercing_id_sVU28F6oqXI_start_52.5_label_1.mp4
40.01274299621582	2.0005390644073486	140.0	1.0	0.384213924407959	Skiing/v_Skiing_id_HliZEZDPXfI_start_16.0_label_1.mp4
44.01241993904114	1.9837870597839355	39.0	1.0	0.3534190654754638	Doing_fencing/v_Doing_fencing_id_17YUhbE4sEM_start_16.0_label_1.mp4
48.01222109794617	2.0335750579833984	148.0	-1.0	0.3280210494995117	Spread_mulch/v_Spread_mulch_id_bXBCK3dRDs8_start_97.5_label_1.mp4
52.01172709465027	1.9999959468841555	8.0	1.0	0.4258308410644531	Baton_twirling/v_Baton_twirling_id_Q5WC-dv7Des_start_78.0_label_1.mp4
60.01107597351074	2.0002641677856445	146.0	1.0	0.0006229877471923	Snowboarding/v_Snowboarding_id_2KcKsE3R0xQ_start_13.5_label_1.mp4
64.0106999874115	2.000695943832397	76.0	1.0	0.6101469993591309	Long_jump/v_Long_jump_id_RJ6ySgqjONI_start_4.5_label_1.mp4
68.01044511795044	2.000088930130005	126.0	-1.0	0.3151979446411133	Riding_bumper_cars/v_Riding_bumper_cars_id_EvHAVVWVzbg_start_11.5_label_1.mp4
72.01003909111023	2.050471067428589	5.0	-1.0	0.3450469970703125	Baking_cookies/v_Baking_cookies_id_tMN-69Yy7j8_start_193.0_label_1.mp4
76.0097279548645	2.017099142074585	24.0	-1.0	0.3308048248291015	Carving_jack-o-lanterns/v_Carving_jack-o-lanterns_id_sfcO6KwzEGw_start_38.0_label_1.mp4
84.00904607772827	2.0006558895111084	42.0	1.0	0.3720850944519043	Doing_motocross/v_Doing_motocross_id_zdMS6_ZfS2s_start_3.0_label_1.mp4
88.00873494148254	2.000540018081665	55.0	-1.0	0.3564169406890869	Grooming_dog/v_Grooming_dog_id_nVRwpuCy9rs_start_9.5_label_1.mp4
92.00838804244997	1.9998939037323	69.0	-1.0	0.4853308200836181	Ironing_clothes/v_Ironing_clothes_id_lhrqXVCHq90_start_8.0_label_1.mp4
96.00804400444032	2.0504369735717773	49.0	-1.0	0.3231110572814941	Fixing_the_roof/v_Fixing_the_roof_id_qjHlhHCBUXg_start_120.0_label_1.mp4
100.00774693489076	2.016916036605835	38.0	1.0	0.3889570236206054	Doing_crunches/v_Doing_crunches_id_3lEKIInCo2o_start_3.5_label_1.mp4
108.00732803344728	2.0001440048217773	127.0	-1.0	0.6941478252410889	Rock_climbing/v_Rock_climbing_id_sBP-zqrFV7Y_start_120.5_label_1.mp4
112.00673294067384	2.01707410812378	83.0	-1.0	0.4378790855407715	Mooping_floor/v_Mooping_floor_id_GUtO1JVtJMA_start_76.0_label_1.mp4
116.02302503585815	2.000433921813965	88.0	-1.0	0.3181760311126709	Painting_furniture/v_Painting_furniture_id_GGSm_L-7rXA_start_113.0_label_1.mp4
120.02271699905396	2.017099142074585	44.0	1.0	0.565838098526001	Doing_step_aerobics/v_Doing_step_aerobics_id_pk5GotmrpaY_start_67.0_label_1.mp4
124.0223469734192	2.0004031658172607	41.0	1.0	0.4549310207366943	Doing_kickboxing/v_Doing_kickboxing_id_tFQ60GLnkXo_start_15.5_label_1.mp4
132.0216770172119	1.983947992324829	50.0	-1.0	0.4481391906738281	Fun_sliding_down/v_Fun_sliding_down_id_uT60Rtrw4fA_start_3.5_label_1.mp4
136.02129316329956	1.983832836151123	110.0	-1.0	0.640484094619751	Playing_rubik_cube/v_Playing_rubik_cube_id_JDQGVA3FWSI_start_61.0_label_1.mp4
140.02097606658936	2.0337228775024414	137.0	-1.0	0.3988020420074463	Shoveling_snow/v_Shoveling_snow_id_cvNI8PCbs-s_start_128.5_label_1.mp4
144.0205409526825	2.00061297416687	115.0	1.0	0.592562198638916	Pole_vault/v_Pole_vault_id_fSjzR4PlnG8_start_7.0_label_1.mp4
148.0202760696411	2.0338380336761475	36.0	1.0	0.4075350761413574	Discus_throw/v_Discus_throw_id_ooGThqUm11E_start_128.0_label_1.mp4
156.0196030139923	2.000399112701416	81.0	-1.0	0.3856539726257324	Making_an_omelette/v_Making_an_omelette_id_5fq2SeNs-NE_start_5.5_label_1.mp4
160.01926493644714	2.0004382133483887	112.0	1.0	0.4499080181121826	Playing_squash/v_Playing_squash_id_Hj9c8khjgZ0_start_72.0_label_1.mp4
164.01894307136536	2.000624895095825	19.0	-1.0	0.450214147567749	Bungee_jumping/v_Bungee_jumping_id_rhdEL7AIJn4_start_67.0_label_1.mp4
168.01859211921692	2.0004758834838867	26.0	-1.0	0.4826231002807617	Chopping_wood/v_Chopping_wood_id_B-_rQfjR0DE_start_54.0_label_1.mp4
172.01855206489563	2.000119924545288	153.0	1.0	0.6830730438232422	Swimming/v_Swimming_id_7qo48GdAPeg_start_116.5_label_1.mp4
180.0176019668579	2.0004260540008545	35.0	-1.0	0.4197819232940674	Disc_dog/v_Disc_dog_id_guDFaMIFdew_start_57.0_label_1.mp4
184.01726293563843	2.000572204589844	120.0	-1.0	0.5159950256347656	Preparing_salad/v_Preparing_salad_id_qvlXy9ML6qc_start_35.5_label_1.mp4
188.01691913604736	2.0002899169921875	157.0	-1.0	0.5084068775177002	Tango/v_Tango_id_zw17515zFbE_start_96.0_label_1.mp4
192.0165629386902	2.0006110668182373	151.0	1.0	0.4766650199890136	Sumo/v_Sumo_id_xzeEjz-oA4I_start_14.0_label_1.mp4
196.0162079334259	2.033792018890381	79.0	-1.0	0.4757370948791504	Making_a_lemonade/v_Making_a_lemonade_id_3l4WnTiTtQw_start_95.0_label_1.mp4
204.01554203033447	2.000571012496948	123.0	-1.0	0.3497350215911865	Putting_on_shoes/v_Putting_on_shoes_id_GZmKq3e2d60_start_79.0_label_1.mp4
208.01521396636963	2.000375986099243	138.0	1.0	1.2780389785766602	Shuffleboard/v_Shuffleboard_id_IWGZ74V4LGU_start_25.5_label_1.mp4
212.01490712165835	2.000001907348633	177.0	-1.0	0.3988900184631347	Welding/v_Welding_id_GvW0PRVuffY_start_14.5_label_1.mp4
216.01456713676453	2.0003819465637207	78.0	-1.0	0.3907008171081543	Making_a_cake/v_Making_a_cake_id_4iS_-lSD8E8_start_14.0_label_1.mp4
220.01415514945984	2.000854969024658	82.0	-1.0	0.4229331016540527	Mixing_drinks/v_Mixing_drinks_id_HzgEjrOUZu4_start_13.0_label_1.mp4
228.01348900794983	2.0000250339508057	165.0	1.0	0.4480311870574951	Using_the_monkey_bar/v_Using_the_monkey_bar_id_9PkPq4bJ4hQ_start_11.5_label_1.mp4
232.0133581161499	2.000105857849121	133.0	1.0	0.2080700397491455	Scuba_diving/v_Scuba_diving_id_poF-_lqwG3E_start_11.5_label_1.mp4
236.0128300189972	2.000422954559326	111.0	-1.0	0.4005179405212402	Playing_saxophone/v_Playing_saxophone_id_vKOcorrv22M_start_12.0_label_1.mp4
240.01246905326843	2.000427961349488	134.0	1.0	1.0087690353393557	Sharpening_knives/v_Sharpening_knives_id_fks7RH-SeTA_start_126.0_label_1.mp4
244.0118899345398	2.033953189849853	46.0	-1.0	0.4317560195922851	Drum_corps/v_Drum_corps_id_09Gox5-HETo_start_59.5_label_1.mp4
252.01145195961	2.000486135482788	147.0	1.0	0.369769811630249	Spinning/v_Spinning_id_gNtRW8xpG9A_start_79.0_label_1.mp4
256.0110991001129	2.000360012054444	117.0	-1.0	0.2264058589935302	Polishing_shoes/v_Polishing_shoes_id_omhaSeFzyWs_start_19.5_label_1.mp4
260.0107610225677	2.000723123550415	18.0	1.0	0.3225049972534179	Bullfighting/v_Bullfighting_id_jbOXJPioHLU_start_1.5_label_1.mp4
264.0104081630707	2.0171709060668945	2.0	-1.0	0.3462281227111816	Arm_wrestling/v_Arm_wrestling_id_fEfWUsU0Zg8_start_7.0_label_1.mp4
268.01010298728943	1.9999239444732664	93.0	1.0	0.3797268867492676	Playing_badminton/v_Playing_badminton_id_ZHYzGxBnC1k_start_92.5_label_1.mp4
276.0094120502472	2.0006489753723145	180.0	-1.0	0.3638370037078857	Zumba/v_Zumba_id_xkJprWLSdZA_start_67.0_label_1.mp4
280.00902104377747	1.9998939037323	176.0	-1.0	0.4209318161010742	Waxing_skis/v_Waxing_skis_id_LlsuenJ2Grg_start_38.0_label_1.mp4
284.0087180137634	2.017177104949951	64.0	-1.0	0.3397529125213623	Hopscotch/v_Hopscotch_id_mfY7DcoIy6g_start_8.0_label_1.mp4
288.00834012031555	2.017140865325928	32.0	1.0	0.516326904296875	Croquet/v_Croquet_id_rMX2KeJa8qI_start_30.5_label_1.mp4
292.0075509548187	2.017575979232788	91.0	1.0	0.3967499732971191	Plataform_diving/v_Plataform_diving_id_0MHdC8594AA_start_29.0_label_1.mp4
