onset	duration	trial_type	response	response_time	stim_file
12.015268802642822	2.067147970199585	32.0	-1.0	0.7003560066223145	Croquet/v_Croquet_id_g9ZnILprR_I_start_57.5_label_1.mp4
16.015347957611084	1.999929904937744	100.0	-1.0	0.3914048671722412	Playing_flauta/v_Playing_flauta_id_MTgXfQiwnfw_start_26.0_label_1.mp4
20.014537811279297	2.000413179397583	17.0	-1.0	0.3596839904785156	Building_sandcastles/v_Building_sandcastles_id_ZFydqE71cEE_start_16.0_label_1.mp4
24.01422381401062	2.0004630088806152	170.0	1.0	0.3121070861816406	Volleyball/v_Volleyball_id_fIZdFOyV_bw_start_9.0_label_1.mp4
28.01383090019226	2.0008769035339355	89.0	1.0	0.4239511489868164	Ping-pong/v_Ping-pong_id_9edzw7L68kQ_start_69.5_label_1.mp4
36.01321291923523	2.000530958175659	164.0	1.0	0.3448920249938965	Using_the_balance_beam/v_Using_the_balance_beam_id_DScOSAwwqX0_start_1.5_label_1.mp4
40.01286697387696	2.000350952148437	44.0	-1.0	0.3613572120666504	Doing_step_aerobics/v_Doing_step_aerobics_id_F4yul8wHjCU_start_67.5_label_1.mp4
44.01251792907715	2.000591993331909	47.0	1.0	0.3696761131286621	Elliptical_trainer/v_Elliptical_trainer_id_D-RIyMwW_h4_start_13.0_label_1.mp4
48.012133836746216	2.017220020294189	20.0	1.0	0.3453249931335449	Calf_roping/v_Calf_roping_id_-6J2MrOO_gQ_start_25.0_label_1.mp4
52.0118088722229	2.000507116317749	34.0	-1.0	0.3144419193267822	Decorating_the_Christmas_tree/v_Decorating_the_Christmas_tree_id_y_eCSlH3HkQ_start_27.5_label_1.mp4
60.01111793518066	2.0003490447998047	63.0	-1.0	0.4350838661193847	Hitting_a_pinata/v_Hitting_a_pinata_id_vnogN-U_vtc_start_13.0_label_1.mp4
64.01078391075134	2.033513069152832	25.0	-1.0	0.3625600337982178	Cheerleading/v_Cheerleading_id_rF972_r1TKw_start_98.5_label_1.mp4
68.01047492027283	2.017030000686645	3.0	-1.0	0.4670648574829101	Assembling_bicycle/v_Assembling_bicycle_id_WRssbP5io8M_start_5.0_label_1.mp4
72.01009893417358	2.000458002090454	146.0	1.0	0.0005819797515869	Snowboarding/v_Snowboarding_id_7TjofjzgZrw_start_18.0_label_1.mp4
76.00980997085571	2.000706911087036	28.0	-1.0	0.4201979637145996	Cleaning_shoes/v_Cleaning_shoes_id_hqVi6BOaL5U_start_129.0_label_1.mp4
84.00909876823425	2.0005300045013428	139.0	1.0	0.397162914276123	Skateboarding/v_Skateboarding_id_9Jnlb6mC538_start_2.5_label_1.mp4
88.00855088233948	2.000117063522339	81.0	-1.0	0.3901400566101074	Making_an_omelette/v_Making_an_omelette_id_9qzSitXtGlA_start_19.0_label_1.mp4
92.00842499732973	2.0171098709106445	172.0	-1.0	0.4051539897918701	Walking_the_dog/v_Walking_the_dog_id_Kyy8aVwdu-w_start_38.5_label_1.mp4
96.00812196731567	2.0170738697052	52.0	-1.0	0.4376289844512939	Getting_a_haircut/v_Getting_a_haircut_id_ptfgjE6P5io_start_14.5_label_1.mp4
100.00781679153442	2.016807079315185	140.0	1.0	0.4541060924530029	Skiing/v_Skiing_id__CQqTTu46e8_start_19.0_label_1.mp4
108.00713682174684	2.000308990478516	113.0	-1.0	0.3992280960083008	Playing_violin/v_Playing_violin_id_0Q1GIC_zy0Y_start_19.0_label_1.mp4
112.0067789554596	2.017088890075684	166.0	1.0	0.3509020805358886	Using_the_pommel_horse/v_Using_the_pommel_horse_id_218frcFUdq0_start_67.0_label_1.mp4
116.02309489250185	2.0003910064697266	19.0	1.0	0.5273251533508301	Bungee_jumping/v_Bungee_jumping_id_TUAHcX1WPeY_start_30.0_label_1.mp4
120.02276492118835	2.000311851501465	77.0	1.0	0.4955530166625976	Longboarding/v_Longboarding_id_-djBnf0GQDY_start_68.5_label_1.mp4
124.02234292030334	2.0004498958587646	175.0	1.0	0.3839099407196045	Waterskiing/v_Waterskiing_id_0HyTIocGzdU_start_49.0_label_1.mp4
132.02170276641846	2.000518083572388	142.0	-1.0	0.4326050281524658	Smoking_a_cigarette/v_Smoking_a_cigarette_id_NsLu3wMNdpQ_start_10.0_label_1.mp4
136.0213668346405	2.0004241466522217	176.0	-1.0	0.6089789867401123	Waxing_skis/v_Waxing_skis_id_Pm8ge179kbU_start_189.5_label_1.mp4
140.02101182937622	2.000437021255493	178.0	1.0	0.4093940258026123	Windsurfing/v_Windsurfing_id_0TdoCMRvLpw_start_19.0_label_1.mp4
144.02125597000122	1.9998779296875	13.0	-1.0	0.5217289924621582	Braiding_hair/v_Braiding_hair_id_KUwlaTWK0Ok_start_2.5_label_1.mp4
148.02033686637878	2.000504970550537	54.0	-1.0	0.4019420146942138	Getting_a_tattoo/v_Getting_a_tattoo_id_ejti7Oh_1AM_start_33.0_label_1.mp4
156.01961994171145	2.000653982162476	60.0	-1.0	0.3387069702148437	Hanging_wallpaper/v_Hanging_wallpaper_id_uxHzAJv9ays_start_42.0_label_1.mp4
160.01929783821106	2.0006179809570312	169.0	-1.0	0.3950660228729248	Vacuuming_floor/v_Vacuuming_floor_id_tp14BN8j2_o_start_38.5_label_1.mp4
164.01899099349976	2.000382900238037	51.0	1.0	0.3873519897460937	Futsal/v_Futsal_id_u1zT3MZ4IG4_start_62.0_label_1.mp4
168.01864099502563	2.0005857944488525	29.0	-1.0	0.4275219440460205	Cleaning_sink/v_Cleaning_sink_id_QVbnS1TuUTE_start_4.0_label_1.mp4
172.01832580566406	2.000519037246704	38.0	1.0	0.3399019241333008	Doing_crunches/v_Doing_crunches_id_BV6cRtnv1ds_start_48.5_label_1.mp4
180.0176239013672	2.000600099563598	50.0	-1.0	0.3726718425750732	Fun_sliding_down/v_Fun_sliding_down_id_ann268jIEDM_start_1.0_label_1.mp4
184.01729488372803	2.00048303604126	75.0	-1.0	0.4530229568481445	Laying_tile/v_Laying_tile_id_qb0gCmxtyBM_start_122.5_label_1.mp4
188.0169568061829	2.034003973007202	97.0	-1.0	0.4519851207733154	Playing_congas/v_Playing_congas_id_6_IZqqDn6rk_start_55.0_label_1.mp4
192.01657795906067	2.000308990478516	12.0	-1.0	0.3976969718933105	Blow-drying_hair/v_Blow-drying_hair_id_D4_qQIgWWx8_start_2.5_label_1.mp4
196.01628494262687	2.0004119873046875	39.0	1.0	0.4221060276031494	Doing_fencing/v_Doing_fencing_id_nkl-O_tQpCo_start_16.0_label_1.mp4
204.0155909061432	2.000433921813965	157.0	-1.0	0.3508908748626709	Tango/v_Tango_id_laXVA7PX8t8_start_117.0_label_1.mp4
208.0152487754821	2.000521183013916	85.0	-1.0	0.399022102355957	Paintball/v_Paintball_id_hrMjn8HoOJE_start_127.0_label_1.mp4
212.0149438381195	2.000458002090454	79.0	-1.0	0.3353719711303711	Making_a_lemonade/v_Making_a_lemonade_id_mRp1CSlyAxE_start_2.0_label_1.mp4
216.01439785957336	2.034127950668335	138.0	-1.0	0.4304499626159668	Shuffleboard/v_Shuffleboard_id_OCSdOUSQdQs_start_89.0_label_1.mp4
220.01420378685	2.0004332065582275	88.0	-1.0	0.3841838836669922	Painting_furniture/v_Painting_furniture_id_9oo6Ae8MJMI_start_36.0_label_1.mp4
228.01362085342407	2.0004210472106934	110.0	-1.0	0.4648499488830566	Playing_rubik_cube/v_Playing_rubik_cube_id_oZ-E6Pw4EXU_start_15.5_label_1.mp4
232.01324677467343	2.000240087509156	153.0	-1.0	0.5612077713012695	Swimming/v_Swimming_id_f_r5dYB5OBs_start_84.0_label_1.mp4
236.0128259658813	2.0005998611450195	162.0	1.0	0.2973039150238037	Tumbling/v_Tumbling_id_V5pV0VYaH80_start_46.0_label_1.mp4
240.01254391670227	2.000463962554932	90.0	-1.0	0.3378419876098633	Plastering/v_Plastering_id_6rsWkGiH37w_start_6.5_label_1.mp4
244.0125889778137	2.000063896179199	26.0	-1.0	0.3061919212341308	Chopping_wood/v_Chopping_wood_id_mo4lProM4qM_start_37.5_label_1.mp4
252.01149487495425	2.0004940032958984	116.0	-1.0	0.3469388484954834	Polishing_forniture/v_Polishing_forniture_id_WOmQXpBsSbU_start_90.0_label_1.mp4
256.01125288009644	2.000883102416992	83.0	-1.0	0.3709080219268799	Mooping_floor/v_Mooping_floor_id_V88f_cplrPY_start_35.5_label_1.mp4
260.01106190681446	1.9998209476470947	126.0	-1.0	0.3799681663513183	Riding_bumper_cars/v_Riding_bumper_cars_id_DDsfG17kXFM_start_33.5_label_1.mp4
264.0104718208313	2.0004889965057373	23.0	1.0	0.3799648284912109	Capoeira/v_Capoeira_id_DxAOl-wienc_start_187.0_label_1.mp4
268.0101490020752	2.0006048679351807	106.0	-1.0	0.3721959590911865	Playing_piano/v_Playing_piano_id_eaTymLhVzMQ_start_13.0_label_1.mp4
276.0095329284668	2.00055193901062	109.0	1.0	0.4129140377044678	Playing_racquetball/v_Playing_racquetball_id_zlDWOfzwxyc_start_47.0_label_1.mp4
280.0091519355774	2.00036883354187	180.0	-1.0	0.3652679920196533	Zumba/v_Zumba_id_TX7RdfdYUVw_start_210.0_label_1.mp4
284.00879979133606	2.000675201416016	86.0	-1.0	0.3894879817962646	Painting/v_Painting_id_96mG-7XuuQc_start_32.0_label_1.mp4
288.0085129737854	2.000358819961548	74.0	-1.0	0.4619719982147217	Knitting/v_Knitting_id_6KN0RsV3EZ8_start_26.0_label_1.mp4
292.0247948169708	2.000452995300293	136.0	1.0	0.3337619304656982	Shot_put/v_Shot_put_id_GhXUcPcFdc0_start_4.5_label_1.mp4
