onset	duration	trial_type	response	response_time	stim_file
12.01531195640564	2.066835165023804	66.0	-1.0	0.7363479137420654	Hula_hoop/v_Hula_hoop_id_PPj7GBH7ieg_start_11.5_label_1.mp4
16.01494812965393	2.000704050064087	165.0	-1.0	1.2349748611450195	Using_the_monkey_bar/v_Using_the_monkey_bar_id_Pkoxo1RhERs_start_10.5_label_1.mp4
20.01461601257324	2.0007071495056152	33.0	-1.0	0.6272540092468262	Cutting_the_grass/v_Cutting_the_grass_id_tmS5u8P4zEs_start_8.0_label_1.mp4
24.01424717903137	2.000548839569092	180.0	-1.0	0.6117129325866699	Zumba/v_Zumba_id_KN7tTH0M4VE_start_106.0_label_1.mp4
28.01413416862488	2.000217914581299	36.0	1.0	0.3960559368133545	Discus_throw/v_Discus_throw_id_aoYfgy1n-cs_start_2.5_label_1.mp4
36.013278007507324	2.0004100799560547	179.0	-1.0	0.7807290554046631	Wrapping_presents/v_Wrapping_presents_id_Rc8ea1oaBRc_start_158.0_label_1.mp4
40.01295495033264	2.000455141067505	31.0	1.0	0.1090350151062011	Cricket/v_Cricket_id_bmdZjJiuGEY_start_128.5_label_1.mp4
44.01263499259949	2.0005030632019043	116.0	-1.0	0.4775300025939941	Polishing_forniture/v_Polishing_forniture_id__VXKhANjmJ8_start_83.0_label_1.mp4
48.012261152267456	2.00044584274292	135.0	-1.0	0.5017359256744385	Shaving/v_Shaving_id_GcpYiCeUj4M_start_68.0_label_1.mp4
52.01192903518677	2.033518075942993	49.0	-1.0	0.5172200202941895	Fixing_the_roof/v_Fixing_the_roof_id_iCH53grX4o4_start_23.5_label_1.mp4
60.011258125305176	2.000427007675171	155.0	-1.0	0.4868738651275635	Table_soccer/v_Table_soccer_id_SpMBclu1b-c_start_16.5_label_1.mp4
64.01087307929993	2.000335931777954	61.0	-1.0	0.4871950149536133	Having_an_ice_cream/v_Having_an_ice_cream_id_jCz1Ic-1ql8_start_75.0_label_1.mp4
68.01059317588806	2.000006914138794	97.0	-1.0	0.6399691104888916	Playing_congas/v_Playing_congas_id_JKn2SIBNGDg_start_33.0_label_1.mp4
72.01019501686096	2.050533056259156	144.0	1.0	0.7418029308319092	Snatch/v_Snatch_id_yNjOdKKD5fQ_start_159.5_label_1.mp4
76.00995206832886	2.0504040718078613	10.0	-1.0	0.4302279949188232	Beer_pong/v_Beer_pong_id_d5bvSy70wy0_start_57.5_label_1.mp4
84.02620697021484	2.01701021194458	159.0	-1.0	0.5194010734558105	Trimming_branches_or_hedges/v_Trimming_branches_or_hedges_id_HN5Q_5OiQKU_start_20.5_label_1.mp4
88.00891995429993	2.0170931816101074	140.0	1.0	0.5284318923950195	Skiing/v_Skiing_id__BVa9b04y8A_start_130.0_label_1.mp4
92.0085940361023	2.0504300594329834	96.0	-1.0	0.6554780006408691	Playing_blackjack/v_Playing_blackjack_id_5LjTZty106o_start_28.0_label_1.mp4
96.0082550048828	2.017078161239624	6.0	-1.0	0.9051070213317872	Ballet/v_Ballet_id_8C6pmN6HfDI_start_34.5_label_1.mp4
100.00787615776062	2.0171539783477783	7.0	-1.0	0.4334948062896728	Bathing_dog/v_Bathing_dog_id_VsM98iBcewc_start_76.5_label_1.mp4
108.00732612609865	2.000282049179077	39.0	1.0	0.4908859729766845	Doing_fencing/v_Doing_fencing_id_1tJOAb4MJEc_start_37.0_label_1.mp4
112.00707411766052	2.050243854522705	139.0	-1.0	0.6891860961914062	Skateboarding/v_Skateboarding_id_wcGosp-vgYE_start_98.0_label_1.mp4
116.02322912216188	2.033681869506836	14.0	-1.0	0.4254279136657715	Breakdancing/v_Breakdancing_id_YMQ348tC6BE_start_54.0_label_1.mp4
120.02289009094238	2.000464916229248	91.0	1.0	0.4431130886077881	Plataform_diving/v_Plataform_diving_id_UZDjQ-q_y4M_start_136.0_label_1.mp4
124.0225911140442	2.000476837158203	125.0	-1.0	0.6514811515808105	Raking_leaves/v_Raking_leaves_id_KM-LNc2DX2I_start_2.0_label_1.mp4
132.02186512947085	1.9833219051361084	164.0	-1.0	0.9493908882141112	Using_the_balance_beam/v_Using_the_balance_beam_id_tXHuUbhzoIc_start_62.5_label_1.mp4
136.02153205871582	2.034024953842163	76.0	1.0	0.7711899280548096	Long_jump/v_Long_jump_id_GTEIViQ23XQ_start_27.0_label_1.mp4
140.02120304107666	2.000481128692627	158.0	-1.0	0.8287539482116699	Throwing_darts/v_Throwing_darts_id_9Kts-MiUOnI_start_1.0_label_1.mp4
144.02083110809326	2.000472068786621	101.0	-1.0	0.4053640365600586	Playing_guitarra/v_Playing_guitarra_id_VPeXz0OIuCY_start_149.0_label_1.mp4
148.0205590724945	2.000261068344116	152.0	1.0	0.4056680202484131	Surfing/v_Surfing_id_zVbKC2Bhd6k_start_16.5_label_1.mp4
156.01985001564026	2.000494956970215	44.0	-1.0	0.4702961444854736	Doing_step_aerobics/v_Doing_step_aerobics_id_VFDeTw_581s_start_42.0_label_1.mp4
160.01950311660767	2.000638961791992	176.0	-1.0	0.7426159381866455	Waxing_skis/v_Waxing_skis_id_H9rqmcBwREk_start_13.0_label_1.mp4
164.01920795440674	2.000452995300293	67.0	1.0	0.830935001373291	Hurling/v_Hurling_id_d0hsLn5CxM8_start_45.0_label_1.mp4
168.01889610290527	2.000278949737549	46.0	-1.0	0.7673089504241943	Drum_corps/v_Drum_corps_id_eHIyXBwjXLs_start_134.0_label_1.mp4
172.0185329914093	2.000617027282715	63.0	-1.0	0.4715199470520019	Hitting_a_pinata/v_Hitting_a_pinata_id_e0FhdzdfIks_start_55.0_label_1.mp4
180.0178370475769	2.000373125076294	121.0	-1.0	0.3763661384582519	Putting_in_contact_lenses/v_Putting_in_contact_lenses_id_TYoEAUK5zhg_start_25.5_label_1.mp4
184.0173990726471	2.000478029251098	85.0	-1.0	0.6006960868835449	Paintball/v_Paintball_id_MRcU2Um6RvY_start_104.5_label_1.mp4
188.0171840190888	2.0003910064697266	110.0	-1.0	0.441033124923706	Playing_rubik_cube/v_Playing_rubik_cube_id_y7EEFalSIv4_start_49.5_label_1.mp4
192.0168290138245	2.0004360675811768	81.0	-1.0	0.4573230743408203	Making_an_omelette/v_Making_an_omelette_id_VRb17hGt78s_start_69.0_label_1.mp4
196.01652097702024	2.000486135482788	93.0	1.0	0.3777551651000976	Playing_badminton/v_Playing_badminton_id_1XfRI6Zyilw_start_33.0_label_1.mp4
204.0157971382141	2.0006039142608643	40.0	1.0	0.5223329067230225	Doing_karate/v_Doing_karate_id_bgl0qpgp5uI_start_36.5_label_1.mp4
208.0154731273651	2.0004589557647705	58.0	-1.0	0.4987759590148926	Hand_car_wash/v_Hand_car_wash_id_FRUYxNUQJKo_start_98.5_label_1.mp4
212.01514506340027	2.000473022460937	166.0	1.0	0.4670720100402832	Using_the_pommel_horse/v_Using_the_pommel_horse_id_876CPi3s0yY_start_32.5_label_1.mp4
216.0148310661316	2.000375986099243	28.0	-1.0	0.707489013671875	Cleaning_shoes/v_Cleaning_shoes_id_6GqC4bs9zjg_start_40.0_label_1.mp4
220.01450610160828	2.000382900238037	129.0	-1.0	0.4437470436096191	Rollerblading/v_Rollerblading_id_ukdZ9KVINnk_start_16.0_label_1.mp4
228.0138001441956	2.000398874282837	53.0	-1.0	0.396528959274292	Getting_a_piercing/v_Getting_a_piercing_id_FjNLix_tGjo_start_30.0_label_1.mp4
232.01346015930176	2.000588893890381	92.0	-1.0	0.5166480541229248	Playing_accordion/v_Playing_accordion_id_h-zm76Ev05Q_start_81.5_label_1.mp4
236.0131130218506	2.0005390644073486	153.0	1.0	0.3890779018402099	Swimming/v_Swimming_id_XQlZk2rbTs4_start_34.0_label_1.mp4
240.0127489566803	2.0167601108551025	147.0	1.0	0.6211369037628174	Spinning/v_Spinning_id_NRYC7An0q70_start_134.0_label_1.mp4
244.0123810768128	2.0004429817199707	90.0	-1.0	0.7018771171569824	Plastering/v_Plastering_id_mfuxDRud_EU_start_112.0_label_1.mp4
252.0116829872132	2.0006911754608154	132.0	-1.0	0.4465467929840088	Sailing/v_Sailing_id_sUqGktC4d3M_start_19.0_label_1.mp4
256.011106967926	2.000900983810425	48.0	-1.0	0.5188438892364502	Fixing_bicycle/v_Fixing_bicycle_id_K-zUeJPImj0_start_8.0_label_1.mp4
260.0110969543457	2.050615072250366	15.0	-1.0	0.4771821498870849	Brushing_hair/v_Brushing_hair_id_fiEIrSdWfXE_start_10.5_label_1.mp4
264.010694026947	2.00051498413086	16.0	-1.0	0.4795269966125488	Brushing_teeth/v_Brushing_teeth_id_Og9QLxl0cdI_start_2.0_label_1.mp4
268.0103540420532	2.000448942184448	119.0	-1.0	0.4640491008758545	Preparing_pasta/v_Preparing_pasta_id_5DcrEyj_Y2Y_start_43.5_label_1.mp4
276.00968503952026	2.00048303604126	169.0	-1.0	0.4325129985809326	Vacuuming_floor/v_Vacuuming_floor_id_99j2Plj6bMo_start_44.5_label_1.mp4
280.00934195518494	2.017009019851685	136.0	1.0	0.4082679748535156	Shot_put/v_Shot_put_id_--E5b_Eo3Y4_start_3.0_label_1.mp4
284.0086829662323	2.0515620708465576	122.0	-1.0	0.4150171279907226	Putting_on_makeup/v_Putting_on_makeup_id_y1cRos30Z0I_start_59.5_label_1.mp4
288.0086901187897	2.017091989517212	127.0	-1.0	0.3849680423736572	Rock_climbing/v_Rock_climbing_id_XRS-sxuH410_start_10.0_label_1.mp4
292.0083360671997	2.0171380043029785	171.0	-1.0	1.273324966430664	Wakeboarding/v_Wakeboarding_id_eFQhKby5EDw_start_13.0_label_1.mp4
