onset	duration	trial_type	response	response_time	stim_file
12.015358924865724	2.0672590732574463	172.0	-1.0	0.4006979465484619	Walking_the_dog/v_Walking_the_dog_id_Q9kWQWxOKTY_start_40.0_label_1.mp4
16.014919996261597	2.0004429817199707	75.0	-1.0	0.4038817882537842	Laying_tile/v_Laying_tile_id_9nJzgkh2vm8_start_9.5_label_1.mp4
20.01460790634156	2.000538110733032	21.0	-1.0	0.3882689476013183	Camel_ride/v_Camel_ride_id_efLe94Aksks_start_5.5_label_1.mp4
24.014259815216064	2.0010931491851807	19.0	-1.0	0.5399839878082275	Bungee_jumping/v_Bungee_jumping_id_T7NH_jNHj04_start_29.0_label_1.mp4
28.013906955719	2.0004470348358154	130.0	1.0	0.6289598941802979	Rope_skipping/v_Rope_skipping_id_rgXk0sC75O4_start_45.5_label_1.mp4
36.01321983337402	2.0006160736083984	70.0	1.0	0.4455821514129638	Javelin_throw/v_Javelin_throw_id_Xpb8Ih6l5Xs_start_36.5_label_1.mp4
40.01288199424744	2.0005810260772705	35.0	-1.0	0.6220200061798096	Disc_dog/v_Disc_dog_id_fuTDzPFPAAU_start_119.0_label_1.mp4
44.0125629901886	2.0009658336639404	5.0	-1.0	0.7020089626312256	Baking_cookies/v_Baking_cookies_id_LKtZT_g-LW8_start_70.0_label_1.mp4
48.01223087310791	2.000062942504883	99.0	1.0	0.4308650493621826	Playing_field_hockey/v_Playing_field_hockey_id_amwBMhx6Eg0_start_15.0_label_1.mp4
52.01188898086548	2.0005929470062256	11.0	-1.0	0.4389622211456299	Belly_dance/v_Belly_dance_id_JYI0iIgtPUw_start_47.5_label_1.mp4
60.01118993759155	2.0340070724487305	1.0	-1.0	0.4540250301361084	Archery/v_Archery_id__kxrwy4DbrA_start_61.5_label_1.mp4
64.01086592674255	2.0004849433898926	62.0	-1.0	0.4880480766296386	High_jump/v_High_jump_id_60az4StD62Y_start_20.0_label_1.mp4
68.01057982444763	2.0000360012054443	51.0	1.0	0.552772045135498	Futsal/v_Futsal_id_6LQsfSnFazs_start_48.5_label_1.mp4
72.01024389266968	2.000465154647827	52.0	-1.0	0.7366421222686768	Getting_a_haircut/v_Getting_a_haircut_id_maZJXOGIiMk_start_43.5_label_1.mp4
76.00989389419556	2.000114917755127	109.0	1.0	0.4655258655548095	Playing_racquetball/v_Playing_racquetball_id_hJOJ44xEwys_start_17.0_label_1.mp4
84.00969004631042	2.0000479221343994	131.0	1.0	0.61763596534729	Running_a_marathon/v_Running_a_marathon_id_lYiFF17qS0U_start_104.0_label_1.mp4
88.00887703895569	2.0169949531555176	170.0	1.0	0.6253759860992432	Volleyball/v_Volleyball_id_dycHpNJJyxc_start_69.0_label_1.mp4
92.0085129737854	2.0504329204559326	9.0	1.0	0.5124678611755371	Beach_soccer/v_Beach_soccer_id_PvisOWC_IrE_start_19.0_label_1.mp4
96.00822186470032	2.0167901515960693	173.0	-1.0	0.4422240257263183	Washing_dishes/v_Washing_dishes_id_jlhCOEJxyjs_start_148.5_label_1.mp4
100.00785994529724	2.0170788764953613	94.0	-1.0	0.6343550682067871	Playing_bagpipes/v_Playing_bagpipes_id_AfgTISrS000_start_2.5_label_1.mp4
108.0074348449707	2.0003111362457275	111.0	-1.0	0.5396060943603516	Playing_saxophone/v_Playing_saxophone_id_yhxhiHpH61E_start_22.5_label_1.mp4
112.02356696128844	2.000359058380127	32.0	-1.0	0.5315790176391602	Croquet/v_Croquet_id_fg3Ua5-Gnmo_start_13.5_label_1.mp4
116.0060579776764	2.0175459384918213	113.0	-1.0	0.547813892364502	Playing_violin/v_Playing_violin_id_GvMauGk1CCo_start_0.5_label_1.mp4
120.0062608718872	2.0169711112976074	167.0	1.0	0.5321140289306641	Using_the_rowing_machine/v_Using_the_rowing_machine_id_HPkWjje0mqQ_start_44.0_label_1.mp4
124.02250003814696	2.000621795654297	42.0	1.0	0.4763531684875488	Doing_motocross/v_Doing_motocross_id_4bcAMQHg0iA_start_102.0_label_1.mp4
132.02212381362915	2.000148057937622	126.0	-1.0	0.6372051239013672	Riding_bumper_cars/v_Riding_bumper_cars_id__OH4bCGYROM_start_115.5_label_1.mp4
136.021507024765	2.0003650188446045	78.0	-1.0	0.4854781627655029	Making_a_cake/v_Making_a_cake_id_RHyGSrCm8c8_start_26.0_label_1.mp4
140.02150988578796	2.00008511543274	115.0	1.0	0.9898979663848876	Pole_vault/v_Pole_vault_id_2CLC8FYJ7Rk_start_1.5_label_1.mp4
144.02083802223206	2.0004258155822754	107.0	1.0	0.5261189937591553	Playing_polo/v_Playing_polo_id_yLicyrxAZFU_start_89.0_label_1.mp4
148.02048897743225	2.000560998916626	73.0	1.0	0.4785580635070801	Kneeling/v_Kneeling_id__y9k_TGyd9M_start_6.5_label_1.mp4
156.01983284950256	2.000243186950684	20.0	-1.0	1.0231449604034424	Calf_roping/v_Calf_roping_id_xrzOkbJYR-k_start_2.5_label_1.mp4
160.0194869041443	2.0003650188446045	71.0	-1.0	0.8075430393218994	Kayaking/v_Kayaking_id_3nZhaCh-GUM_start_55.5_label_1.mp4
164.01915788650513	2.0003371238708496	59.0	-1.0	0.5358290672302246	Hand_washing_clothes/v_Hand_washing_clothes_id_YSYbyaC5Ffw_start_106.0_label_1.mp4
168.01883482933044	2.0000991821289062	80.0	-1.0	0.6166000366210938	Making_a_sandwich/v_Making_a_sandwich_id_wLsPLxM_QW4_start_2.0_label_1.mp4
172.01853799819946	2.0005228519439697	87.0	-1.0	0.9044129848480223	Painting_fence/v_Painting_fence_id_WSQyvFtm2kE_start_7.5_label_1.mp4
180.01782393455505	2.000686883926392	57.0	1.0	0.5131340026855469	Hammer_throw/v_Hammer_throw_id_WMyIlvlUUro_start_5.0_label_1.mp4
184.01748991012573	2.0004351139068604	56.0	-1.0	0.5535311698913574	Grooming_horse/v_Grooming_horse_id_De01Of3YSE4_start_105.5_label_1.mp4
188.0171709060669	2.000335931777954	102.0	-1.0	0.5698919296264648	Playing_harmonica/v_Playing_harmonica_id_z4vstJLkc90_start_73.0_label_1.mp4
192.0168058872223	2.000396966934204	134.0	-1.0	1.2342870235443115	Sharpening_knives/v_Sharpening_knives_id_VGVoq1zofxM_start_54.5_label_1.mp4
196.01650285720825	2.000044107437134	141.0	-1.0	0.9068939685821532	Slacklining/v_Slacklining_id_tA5jYeSRQMM_start_13.5_label_1.mp4
204.0157580375672	2.00042986869812	160.0	1.0	0.4912211894989013	Triple_jump/v_Triple_jump_id_3cTRc4_vzik_start_1.5_label_1.mp4
208.0154130458832	2.0005269050598145	103.0	1.0	0.8516120910644531	Playing_ice_hockey/v_Playing_ice_hockey_id_fckk7t1LdJI_start_8.5_label_1.mp4
212.01473593711853	2.001059055328369	117.0	-1.0	0.37972092628479	Polishing_shoes/v_Polishing_shoes_id_9BFJqNALPNs_start_12.0_label_1.mp4
216.01474595069885	2.00040602684021	12.0	-1.0	0.5403590202331543	Blow-drying_hair/v_Blow-drying_hair_id_ZJuclUUnkpU_start_29.0_label_1.mp4
220.01434588432312	2.03403115272522	45.0	-1.0	0.7634007930755615	Drinking_coffee/v_Drinking_coffee_id_8MxnvXabKGY_start_133.0_label_1.mp4
228.01366901397705	2.0336480140686035	104.0	1.0	0.500032901763916	Playing_kickball/v_Playing_kickball_id_KvJe5qoK36I_start_120.0_label_1.mp4
232.01338601112369	2.000478029251098	128.0	-1.0	0.8136131763458252	Rock-paper-scissors/v_Rock-paper-scissors_id_VeNll197bYk_start_20.0_label_1.mp4
236.0130739212036	2.0003349781036377	100.0	-1.0	0.6860508918762207	Playing_flauta/v_Playing_flauta_id_ALSsiC9uY-A_start_19.5_label_1.mp4
240.01262998580933	2.000473976135254	151.0	1.0	0.4783990383148193	Sumo/v_Sumo_id_8jHfqPfVskQ_start_12.5_label_1.mp4
244.01237297058103	2.0004770755767822	150.0	-1.0	0.470801830291748	Starting_a_campfire/v_Starting_a_campfire_id_NIQK7aHAmVk_start_173.5_label_1.mp4
252.01165294647217	2.00103497505188	13.0	-1.0	0.510854959487915	Braiding_hair/v_Braiding_hair_id_2H4RNAm7aec_start_107.0_label_1.mp4
256.01129603385925	2.000311851501465	60.0	-1.0	0.8078348636627197	Hanging_wallpaper/v_Hanging_wallpaper_id_NPpCLBvYJEQ_start_154.0_label_1.mp4
260.01098203659046	2.000296831130981	98.0	-1.0	0.4801211357116699	Playing_drums/v_Playing_drums_id_E54XI02MqmA_start_20.5_label_1.mp4
264.0106568336487	2.017014980316162	95.0	-1.0	0.98386812210083	Playing_beach_volleyball/v_Playing_beach_volleyball_id_ap0dqWdHdik_start_15.5_label_1.mp4
268.01031589508057	2.0173189640045166	138.0	1.0	1.0237529277801514	Shuffleboard/v_Shuffleboard_id_tyuJRmqnK8o_start_2.0_label_1.mp4
276.00960183143616	2.0007011890411377	86.0	-1.0	0.6093661785125732	Painting/v_Painting_id_tdTuDnMNyrA_start_16.5_label_1.mp4
280.00929284095764	2.0173590183258057	3.0	-1.0	0.5851039886474609	Assembling_bicycle/v_Assembling_bicycle_id_DwYOEQQVvdY_start_18.0_label_1.mp4
284.0091049671173	2.050333023071289	124.0	1.0	0.600208044052124	Rafting/v_Rafting_id_aUGW0cJfbBs_start_24.5_label_1.mp4
288.0086238384247	1.9998810291290283	82.0	-1.0	0.4990170001983642	Mixing_drinks/v_Mixing_drinks_id_kKfdv4blP6g_start_15.5_label_1.mp4
292.0083439350128	2.050410032272339	174.0	-1.0	0.4488530158996582	Washing_hands/v_Washing_hands_id_8_m6IaH1ikc_start_32.5_label_1.mp4
