onset	duration	trial_type	response	response_time	stim_file
12.015279054641724	2.067150115966797	33.0	-1.0	0.0006101131439208	Cutting_the_grass/v_Cutting_the_grass_id_3U1y7qwwy2A_start_12.0_label_1.mp4
16.014945030212402	2.000524044036865	16.0	-1.0	0.0006728172302246	Brushing_teeth/v_Brushing_teeth_id_KHYJc1JXLdE_start_3.0_label_1.mp4
20.01461911201477	2.034260034561157	145.0	1.0	0.0007379055023193	Snow_tubing/v_Snow_tubing_id_78wRaLT8_D4_start_24.5_label_1.mp4
24.014284133911133	2.000695943832397	106.0	-1.0	0.0006728172302246	Playing_piano/v_Playing_piano_id_YGZEZSgcyKg_start_45.5_label_1.mp4
28.01394009590149	2.034012079238892	85.0	1.0	0.0006060600280761	Paintball/v_Paintball_id_u8RQ2G-7lMw_start_29.5_label_1.mp4
36.0132532119751	2.0339999198913574	138.0	1.0	0.0006639957427978	Shuffleboard/v_Shuffleboard_id_HNG7_hdDc6k_start_21.5_label_1.mp4
40.01293420791626	2.000661849975586	39.0	1.0	0.000723123550415	Doing_fencing/v_Doing_fencing_id_PMy1La65PlM_start_5.0_label_1.mp4
44.01257920265198	2.000765800476074	12.0	-1.0	0.0005669593811035	Blow-drying_hair/v_Blow-drying_hair_id_p7OFcG3Gzsc_start_7.0_label_1.mp4
48.01229405403137	1.999825954437256	100.0	-1.0	0.0006110668182373	Playing_flauta/v_Playing_flauta_id__7-PM_4aeE4_start_42.0_label_1.mp4
52.01189112663269	2.000685930252075	87.0	-1.0	0.0005829334259033	Painting_fence/v_Painting_fence_id_a5IkKsEUeDk_start_6.5_label_1.mp4
60.01124119758606	2.000518798828125	92.0	-1.0	0.0008478164672851	Playing_accordion/v_Playing_accordion_id_gaGYA3iyiGM_start_22.0_label_1.mp4
64.01091504096985	2.000014066696167	7.0	-1.0	0.0005528926849365	Bathing_dog/v_Bathing_dog_id_3UJuryD4jgw_start_2.5_label_1.mp4
68.01052498817444	2.00020718574524	161.0	1.0	0.0005671977996826	Tug_of_war/v_Tug_of_war_id_LR6JobvGD-E_start_8.0_label_1.mp4
72.01021003723145	2.0171661376953125	104.0	1.0	0.0006611347198486	Playing_kickball/v_Playing_kickball_id_ucXqBn-EKd0_start_105.0_label_1.mp4
76.00990200042725	2.0171091556549072	56.0	-1.0	0.0005788803100585	Grooming_horse/v_Grooming_horse_id_2IgXl12G930_start_44.0_label_1.mp4
84.00920510292053	2.034095048904419	81.0	-1.0	0.0005989074707031	Making_an_omelette/v_Making_an_omelette_id_icCqE_ai_aU_start_23.5_label_1.mp4
88.00888299942017	2.0171091556549072	162.0	1.0	0.0004777908325195	Tumbling/v_Tumbling_id_odhKlx9j7HA_start_2.0_label_1.mp4
92.00858306884766	2.017090082168579	51.0	1.0	0.0004351139068603	Futsal/v_Futsal_id_9XcTODwMp4A_start_18.0_label_1.mp4
96.00858807563782	1.999844074249268	143.0	-1.0	0.000432014465332	Smoking_hookah/v_Smoking_hookah_id_HrBa_UraJvc_start_2.0_label_1.mp4
100.00796699523926	2.016997098922729	149.0	n/a	n/a	Springboard_diving/v_Springboard_diving_id_YuuvQwq_pHg_start_10.0_label_1.mp4
108.02391600608826	2.0003740787506104	97.0	-1.0	0.0005419254302978	Playing_congas/v_Playing_congas_id_ESXwHU2hu80_start_81.0_label_1.mp4
112.02351021766664	2.000330924987793	125.0	-1.0	0.0005719661712646	Raking_leaves/v_Raking_leaves_id__q9N4ELKJp0_start_23.5_label_1.mp4
116.0231750011444	2.0005671977996826	115.0	1.0	0.0004570484161376	Pole_vault/v_Pole_vault_id_jfJph9dh61E_start_3.0_label_1.mp4
120.02283811569214	2.00051498413086	6.0	1.0	0.0005719661712646	Ballet/v_Ballet_id_-ukHGcHH3ws_start_29.0_label_1.mp4
124.0225121974945	2.0004868507385254	41.0	1.0	0.000525951385498	Doing_kickboxing/v_Doing_kickboxing_id_rYdof_aN82A_start_68.5_label_1.mp4
132.02183318138125	2.000459909439087	166.0	1.0	0.0004439353942871	Using_the_pommel_horse/v_Using_the_pommel_horse_id_UqaGwqv19Wc_start_4.5_label_1.mp4
136.0214991569519	2.0004448890686035	79.0	-1.0	0.0005619525909423	Making_a_lemonade/v_Making_a_lemonade_id__hScVXfSTV8_start_115.0_label_1.mp4
140.02112817764282	2.0004420280456543	95.0	1.0	0.0005481243133544	Playing_beach_volleyball/v_Playing_beach_volleyball_id_JWozh3kljtE_start_21.0_label_1.mp4
144.02082109451294	2.000437021255493	160.0	1.0	0.0005328655242919	Triple_jump/v_Triple_jump_id_35hSlTfczuc_start_3.5_label_1.mp4
148.02049112319946	2.000678062438965	73.0	1.0	0.0005087852478027	Kneeling/v_Kneeling_id_0WiXMrh-sCQ_start_7.5_label_1.mp4
156.01982808113098	2.000545024871826	31.0	1.0	0.0008280277252197	Cricket/v_Cricket_id_CMUxYcXj73Q_start_67.0_label_1.mp4
160.01949000358582	2.0003461837768555	105.0	1.0	0.0007400512695312	Playing_lacrosse/v_Playing_lacrosse_id_v5TqLKsAOnk_start_1.5_label_1.mp4
164.01914715766907	2.0005128383636475	153.0	1.0	0.0005650520324707	Swimming/v_Swimming_id_Me1J75qFBRI_start_34.5_label_1.mp4
168.01874113082886	2.0004138946533203	102.0	-1.0	0.0005710124969482	Playing_harmonica/v_Playing_harmonica_id_aQFLCXn8HXs_start_69.5_label_1.mp4
172.01845717430115	2.0337839126586914	173.0	-1.0	0.0006549358367919	Washing_dishes/v_Washing_dishes_id_qH7SGoCDzao_start_96.5_label_1.mp4
180.01778101921082	2.000392198562622	165.0	1.0	0.0005838871002197	Using_the_monkey_bar/v_Using_the_monkey_bar_id_4q7OQ4sEKOc_start_47.5_label_1.mp4
184.0174241065979	2.0005788803100586	174.0	-1.0	0.0005319118499755	Washing_hands/v_Washing_hands_id_HNpKD4h0urA_start_39.0_label_1.mp4
188.01709008216852	2.0004680156707764	59.0	-1.0	0.0006232261657714	Hand_washing_clothes/v_Hand_washing_clothes_id_XuHF7AfUTA8_start_13.5_label_1.mp4
192.0167322158813	2.0004138946533203	176.0	-1.0	0.000615119934082	Waxing_skis/v_Waxing_skis_id_AqvYRZIidA4_start_3.5_label_1.mp4
196.0163931846619	2.034112930297852	94.0	-1.0	0.0006229877471923	Playing_bagpipes/v_Playing_bagpipes_id_sZJTxCuigFM_start_25.5_label_1.mp4
204.0156931877136	2.000483989715576	131.0	1.0	0.0005879402160644	Running_a_marathon/v_Running_a_marathon_id_72Y3iNrZh8M_start_16.0_label_1.mp4
208.0153729915619	2.033753156661988	34.0	-1.0	0.0006370544433593	Decorating_the_Christmas_tree/v_Decorating_the_Christmas_tree_id_vRb-YzFkOhc_start_21.5_label_1.mp4
212.0150179862976	2.00057315826416	158.0	1.0	0.0005979537963867	Throwing_darts/v_Throwing_darts_id_xuAvh49BkDo_start_144.0_label_1.mp4
216.0146272182465	2.0006468296051025	68.0	-1.0	0.0007150173187255	Ice_fishing/v_Ice_fishing_id_gNmfoyZnnbM_start_87.5_label_1.mp4
220.0143501758576	2.034224033355713	119.0	-1.0	0.0005509853363037	Preparing_pasta/v_Preparing_pasta_id_6hgUKP6CARs_start_192.5_label_1.mp4
228.0136601924896	2.0005078315734863	135.0	-1.0	0.0005531311035156	Shaving/v_Shaving_id_c2O200tNDAI_start_171.5_label_1.mp4
232.0134081840515	2.000540971755981	19.0	1.0	0.0005791187286376	Bungee_jumping/v_Bungee_jumping_id_p6J3DWQKNfE_start_6.5_label_1.mp4
236.0129811763764	2.000622034072876	8.0	1.0	0.0005631446838378	Baton_twirling/v_Baton_twirling_id_v94Dw7F5hdk_start_170.0_label_1.mp4
240.0126421451569	2.000464916229248	32.0	1.0	0.0007059574127197	Croquet/v_Croquet_id_TphKp3hSsmk_start_15.0_label_1.mp4
244.0123550891876	2.0007359981536865	152.0	1.0	0.0007410049438476	Surfing/v_Surfing_id_duCtglv7kxM_start_42.0_label_1.mp4
252.01162815094	2.0005030632019043	122.0	-1.0	0.0004999637603759	Putting_on_makeup/v_Putting_on_makeup_id_jIbgz7EwRJo_start_36.5_label_1.mp4
256.01128911972046	2.0002880096435547	48.0	-1.0	0.0005569458007812	Fixing_bicycle/v_Fixing_bicycle_id__BasRV7NHcs_start_33.0_label_1.mp4
260.01091599464417	2.0005600452423096	157.0	-1.0	0.0005409717559814	Tango/v_Tango_id_bxBR8NRb50M_start_105.0_label_1.mp4
264.0105981826782	2.017088890075684	24.0	-1.0	0.0005898475646972	Carving_jack-o-lanterns/v_Carving_jack-o-lanterns_id_Pyxm85vb5dI_start_8.5_label_1.mp4
268.01029801368713	2.0001370906829834	61.0	-1.0	0.0006020069122314	Having_an_ice_cream/v_Having_an_ice_cream_id_V-AAGlZMBz8_start_28.5_label_1.mp4
276.00967502593994	2.000270128250122	35.0	-1.0	0.0005121231079101	Disc_dog/v_Disc_dog_id_g9MvzRsapHU_start_31.0_label_1.mp4
280.0092570781708	2.0171029567718506	22.0	1.0	0.0006320476531982	Canoeing/v_Canoeing_id_xHIxrnFUEEQ_start_55.0_label_1.mp4
284.0089361667633	2.017110824584961	53.0	-1.0	0.0005998611450195	Getting_a_piercing/v_Getting_a_piercing_id_Bz-u7YfbCqo_start_111.0_label_1.mp4
288.0086190700531	2.0170199871063232	90.0	-1.0	0.0006649494171142	Plastering/v_Plastering_id_pMCY3oYcO0E_start_109.5_label_1.mp4
292.0082290172577	2.0001800060272217	74.0	-1.0	0.0006840229034423	Knitting/v_Knitting_id_ppCEe58IKm4_start_46.0_label_1.mp4
