onset	duration	trial_type	response	response_time	stim_file
12.015099048614502	2.0674760341644287	175.0	1.0	0.0006208419799804	Waterskiing/v_Waterskiing_id_ycqVAqEHkdo_start_146.5_label_1.mp4
16.01480793952942	2.000604152679444	15.0	-1.0	0.0004289150238037	Brushing_hair/v_Brushing_hair_id_CsL95ko079c_start_5.5_label_1.mp4
20.014396905899048	1.999860048294068	171.0	n/a	n/a	Wakeboarding/v_Wakeboarding_id_kn_khzWo88I_start_1.5_label_1.mp4
24.0142879486084	2.000077962875366	51.0	n/a	n/a	Futsal/v_Futsal_id_-ES1LsNmGpY_start_37.5_label_1.mp4
28.01375198364257	2.0004100799560547	139.0	1.0	0.0005381107330322	Skateboarding/v_Skateboarding_id_jLsU7i3-9ZU_start_4.5_label_1.mp4
36.01309299468994	2.001138925552368	39.0	1.0	0.0005340576171875	Doing_fencing/v_Doing_fencing_id_CYsvoaI8xlM_start_46.0_label_1.mp4
40.012710094451904	2.000440835952759	110.0	n/a	n/a	Playing_rubik_cube/v_Playing_rubik_cube_id_dqn_JhUreDw_start_1.0_label_1.mp4
44.01238203048706	2.000263929367065	169.0	-1.0	0.0006210803985595	Vacuuming_floor/v_Vacuuming_floor_id_it4EZ5OzsfU_start_31.5_label_1.mp4
48.012027978897095	2.0004611015319824	35.0	1.0	0.0005390644073486	Disc_dog/v_Disc_dog_id_tYS8t_G1CRM_start_22.5_label_1.mp4
52.01176905632019	2.0007519721984863	25.0	-1.0	0.0006980895996093	Cheerleading/v_Cheerleading_id_xUtp-Fq3cVM_start_9.5_label_1.mp4
60.01102805137634	2.0003018379211426	168.0	1.0	0.000525951385498	Using_uneven_bars/v_Using_uneven_bars_id_5Gcvq7EPNv0_start_1.5_label_1.mp4
64.01073288917542	2.0004889965057373	93.0	1.0	0.0006649494171142	Playing_badminton/v_Playing_badminton_id_t1yJReJUF70_start_16.0_label_1.mp4
68.01043796539307	2.016901969909668	122.0	-1.0	0.0005810260772705	Putting_on_makeup/v_Putting_on_makeup_id_13MnO0vx-bQ_start_187.5_label_1.mp4
72.01000595092773	2.0170769691467285	86.0	n/a	n/a	Painting/v_Painting_id_ac2BvbnpH90_start_52.0_label_1.mp4
76.0097188949585	2.000200033187866	101.0	-1.0	0.0006070137023925	Playing_guitarra/v_Playing_guitarra_id_wUZci1wNRJ4_start_51.0_label_1.mp4
84.00901889801025	2.000526189804077	82.0	-1.0	0.0008549690246582	Mixing_drinks/v_Mixing_drinks_id_D9hClOxrjeM_start_8.5_label_1.mp4
88.00866198539734	2.017157077789306	74.0	-1.0	0.000493049621582	Knitting/v_Knitting_id_lWDUnYKf5r0_start_48.5_label_1.mp4
92.00830793380736	2.050467014312744	111.0	-1.0	0.0005099773406982	Playing_saxophone/v_Playing_saxophone_id_7Xl0K-revJc_start_108.0_label_1.mp4
96.00823307037354	2.050262928009033	163.0	1.0	0.0005490779876708	Using_parallel_bars/v_Using_parallel_bars_id_1R4G59PY7IY_start_9.0_label_1.mp4
100.00773191452026	2.01709508895874	138.0	-1.0	0.000648021697998	Shuffleboard/v_Shuffleboard_id_12CUawAe6iA_start_50.5_label_1.mp4
108.00742101669312	1.99967098236084	4.0	1.0	0.000784158706665	BMX/v_BMX_id_1AGq_XG9VLU_start_17.5_label_1.mp4
112.0233509540558	2.000411033630371	69.0	-1.0	0.0005650520324707	Ironing_clothes/v_Ironing_clothes_id_c2XNBQtVINs_start_83.0_label_1.mp4
116.02297806739809	2.0003819465637207	62.0	1.0	0.0005919933319091	High_jump/v_High_jump_id_9cHHA1wmv9s_start_18.0_label_1.mp4
120.00549793243408	2.017552137374878	140.0	1.0	0.000478982925415	Skiing/v_Skiing_id_LpidNQE8zr0_start_41.0_label_1.mp4
124.02253603935242	2.0335710048675537	133.0	-1.0	0.0005059242248535	Scuba_diving/v_Scuba_diving_id_ChJn4sNH33E_start_28.0_label_1.mp4
132.02164602279663	2.0004210472106934	41.0	1.0	0.0006029605865478	Doing_kickboxing/v_Doing_kickboxing_id_imV5RwB3t9E_start_149.5_label_1.mp4
136.02130699157715	2.000555992126465	120.0	-1.0	0.0006418228149414	Preparing_salad/v_Preparing_salad_id_gC4z-xLY9QI_start_133.0_label_1.mp4
140.02098298072815	2.0004560947418213	165.0	-1.0	0.0004189014434814	Using_the_monkey_bar/v_Using_the_monkey_bar_id_GrSN0GGO0Vw_start_40.0_label_1.mp4
144.0206060409546	2.0004818439483643	143.0	n/a	n/a	Smoking_hookah/v_Smoking_hookah_id_Oew-GdWnCLk_start_12.5_label_1.mp4
148.0202898979187	2.00039005279541	70.0	1.0	0.0005390644073486	Javelin_throw/v_Javelin_throw_id_GmLqWpLqrIE_start_5.0_label_1.mp4
156.0196180343628	2.000434875488281	45.0	-1.0	0.0007050037384033	Drinking_coffee/v_Drinking_coffee_id_XpPia4WDreE_start_9.5_label_1.mp4
160.01936388015747	2.0004711151123047	12.0	-1.0	0.0006561279296875	Blow-drying_hair/v_Blow-drying_hair_id_qNaS6Swn2H8_start_16.0_label_1.mp4
164.01895594596863	2.000638008117676	114.0	1.0	0.0005609989166259	Playing_water_polo/v_Playing_water_polo_id_v_48Ty7saSU_start_34.5_label_1.mp4
168.01861095428467	2.0004870891571045	59.0	n/a	n/a	Hand_washing_clothes/v_Hand_washing_clothes_id_FXneVvTRX6M_start_39.5_label_1.mp4
172.01828789711	2.000481128692627	127.0	1.0	0.0004749298095703	Rock_climbing/v_Rock_climbing_id_FM-Qf1wHfmg_start_104.5_label_1.mp4
180.0176329612732	1.999906063079834	179.0	n/a	n/a	Wrapping_presents/v_Wrapping_presents_id_Ux4brKS0Sac_start_109.5_label_1.mp4
184.0172779560089	2.000375986099243	14.0	-1.0	0.0006380081176757	Breakdancing/v_Breakdancing_id_NH8baAzuqtE_start_134.5_label_1.mp4
188.01693201065063	2.000602960586548	31.0	1.0	0.0004539489746093	Cricket/v_Cricket_id_-8rtdLeKico_start_79.0_label_1.mp4
192.0166358947754	2.000404119491577	172.0	n/a	n/a	Walking_the_dog/v_Walking_the_dog_id_EB8lbZs1ayU_start_36.0_label_1.mp4
196.01624298095703	2.0005030632019043	90.0	n/a	n/a	Plastering/v_Plastering_id_C3Uu4eYJY6c_start_163.0_label_1.mp4
204.01559901237488	2.000427007675171	54.0	-1.0	0.0005731582641601	Getting_a_tattoo/v_Getting_a_tattoo_id_tuaCQsGhV1E_start_68.5_label_1.mp4
208.01524996757507	2.000293016433716	5.0	n/a	n/a	Baking_cookies/v_Baking_cookies_id_vTCrcYnYuzw_start_2.0_label_1.mp4
212.0149369239807	2.0002100467681885	3.0	n/a	n/a	Assembling_bicycle/v_Assembling_bicycle_id_L-n0m6jMOCE_start_80.0_label_1.mp4
216.0146009922028	2.0003628730773926	155.0	n/a	n/a	Table_soccer/v_Table_soccer_id_RsDW2L-A3L4_start_9.5_label_1.mp4
220.0142319202423	2.0003039836883545	83.0	n/a	n/a	Mooping_floor/v_Mooping_floor_id_6CQ5Vddrn1s_start_46.5_label_1.mp4
228.01352405548096	2.000532865524292	160.0	1.0	0.0006380081176757	Triple_jump/v_Triple_jump_id_2dBk9b3i3_Y_start_22.0_label_1.mp4
232.01325392723083	2.000448942184448	60.0	-1.0	0.000540018081665	Hanging_wallpaper/v_Hanging_wallpaper_id_zsXNyJJjhj0_start_132.0_label_1.mp4
236.0128948688507	2.000485181808472	6.0	1.0	0.0008869171142578	Ballet/v_Ballet_id_eywpHXQ-eWY_start_13.5_label_1.mp4
240.01249194145203	2.0006699562072754	68.0	1.0	0.0006051063537597	Ice_fishing/v_Ice_fishing_id_A3jrRnmWYso_start_6.5_label_1.mp4
244.01218509674072	2.000382900238037	151.0	1.0	0.000586986541748	Sumo/v_Sumo_id_LHHSSMIfYgs_start_10.5_label_1.mp4
252.01164603233337	2.033874034881592	121.0	n/a	n/a	Putting_in_contact_lenses/v_Putting_in_contact_lenses_id_dUii8kVHqi8_start_21.0_label_1.mp4
256.01116394996643	2.000623941421509	158.0	-1.0	0.0006051063537597	Throwing_darts/v_Throwing_darts_id_bUVZOXxwsFk_start_114.0_label_1.mp4
260.0108249187469	2.0003349781036377	92.0	n/a	n/a	Playing_accordion/v_Playing_accordion_id_TTfMdbLfApQ_start_31.5_label_1.mp4
264.0104990005493	2.0011250972747803	44.0	n/a	n/a	Doing_step_aerobics/v_Doing_step_aerobics_id_QHZqab1K-Ic_start_120.0_label_1.mp4
268.0101490020752	2.000391960144043	109.0	1.0	0.0005388259887695	Playing_racquetball/v_Playing_racquetball_id_aSOIK3byB_4_start_75.0_label_1.mp4
276.0094828605652	2.000568151473999	149.0	1.0	0.0004949569702148	Springboard_diving/v_Springboard_diving_id_Iv-BylTpzdM_start_48.5_label_1.mp4
280.0091519355774	2.0171239376068115	81.0	n/a	n/a	Making_an_omelette/v_Making_an_omelette_id_R4D5HAWxiYg_start_31.0_label_1.mp4
284.0088279247284	2.017025947570801	26.0	n/a	n/a	Chopping_wood/v_Chopping_wood_id_4jHgjNrfw-Y_start_9.5_label_1.mp4
288.008437871933	2.016977071762085	148.0	-1.0	0.0005300045013427	Spread_mulch/v_Spread_mulch_id_l5TQ19qycUo_start_8.5_label_1.mp4
292.00816893577576	2.016916036605835	166.0	1.0	0.0006320476531982	Using_the_pommel_horse/v_Using_the_pommel_horse_id_TElIs_fA06M_start_28.5_label_1.mp4
