onset	duration	trial_type	response	response_time	stim_file
12.01521110534668	2.0671029090881348	134.0	-1.0	0.0005390644073486	Sharpening_knives/v_Sharpening_knives_id_ZpJaUGmS0rw_start_187.0_label_1.mp4
16.01490306854248	2.000670909881592	179.0	-1.0	0.0006301403045654	Wrapping_presents/v_Wrapping_presents_id_0TxJQk72378_start_171.5_label_1.mp4
20.01452803611756	2.000627040863037	28.0	-1.0	0.0006690025329589	Cleaning_shoes/v_Cleaning_shoes_id_2oojFWUCXOA_start_21.0_label_1.mp4
24.014163970947266	2.000349998474121	70.0	1.0	0.000572919845581	Javelin_throw/v_Javelin_throw_id_PO01K5B1xHk_start_68.0_label_1.mp4
28.013844966888428	2.000460147857666	13.0	-1.0	0.0007100105285644	Braiding_hair/v_Braiding_hair_id_nwsI0izBPY0_start_111.0_label_1.mp4
36.01319718360901	2.0010550022125244	29.0	-1.0	0.0005939006805419	Cleaning_sink/v_Cleaning_sink_id_avhxA1AOnAY_start_69.5_label_1.mp4
40.01286506652832	2.000591993331909	3.0	-1.0	0.0005970001220703	Assembling_bicycle/v_Assembling_bicycle_id_icnboZv8ouc_start_169.5_label_1.mp4
44.012508153915405	2.0335988998413086	40.0	1.0	0.0006608963012695	Doing_karate/v_Doing_karate_id_CN3FYAvK2zY_start_131.5_label_1.mp4
48.01224398612976	2.000533103942871	47.0	1.0	0.0004889965057373	Elliptical_trainer/v_Elliptical_trainer_id_dv--cP9VdmQ_start_54.5_label_1.mp4
52.01231813430786	2.000030040740967	64.0	1.0	0.0007071495056152	Hopscotch/v_Hopscotch_id_yOviVXrLcUA_start_10.0_label_1.mp4
60.01119804382324	2.000328063964844	147.0	1.0	0.0006871223449707	Spinning/v_Spinning_id_pHzuSHe9w4w_start_139.5_label_1.mp4
64.01081109046936	2.000463962554932	14.0	-1.0	0.0005891323089599	Breakdancing/v_Breakdancing_id_R4e8_yYNZAE_start_1.5_label_1.mp4
68.01052713394165	2.000656843185425	86.0	-1.0	0.0006201267242431	Painting/v_Painting_id_v04bMViCWmI_start_140.0_label_1.mp4
72.00966310501099	2.0175929069519043	178.0	1.0	0.0006411075592041	Windsurfing/v_Windsurfing_id_Qa4i_CruPkc_start_22.0_label_1.mp4
76.00979900360107	2.0172221660614014	18.0	1.0	0.1416130065917968	Bullfighting/v_Bullfighting_id_ebEVTpFzg98_start_12.0_label_1.mp4
84.00913310050964	2.0007240772247314	15.0	-1.0	0.0005280971527099	Brushing_hair/v_Brushing_hair_id_6VsMi5BhG5s_start_139.5_label_1.mp4
88.00880813598633	2.017138957977295	148.0	-1.0	0.0004279613494873	Spread_mulch/v_Spread_mulch_id_Ff-NESCQQPE_start_72.0_label_1.mp4
92.00850105285645	2.016907930374145	54.0	-1.0	0.0007400512695312	Getting_a_tattoo/v_Getting_a_tattoo_id_RF3VLdjEXAw_start_21.0_label_1.mp4
96.00816106796265	2.017082929611206	83.0	-1.0	0.0005910396575927	Mooping_floor/v_Mooping_floor_id_E9tQoFR8DGc_start_49.5_label_1.mp4
100.00782704353333	2.017043113708496	88.0	-1.0	0.0006918907165527	Painting_furniture/v_Painting_furniture_id_keE8_yKuVW0_start_31.0_label_1.mp4
108.00723910331726	2.0002999305725098	45.0	-1.0	0.0006392002105712	Drinking_coffee/v_Drinking_coffee_id_lE8FibUYhpI_start_7.5_label_1.mp4
112.02346515655518	2.000478029251098	38.0	1.0	0.0005397796630859	Doing_crunches/v_Doing_crunches_id_lCpAcmMGMoE_start_9.5_label_1.mp4
116.02315402030943	2.0004031658172607	159.0	-1.0	0.0005269050598144	Trimming_branches_or_hedges/v_Trimming_branches_or_hedges_id_qHbOeQwDv1I_start_36.0_label_1.mp4
120.02277517318726	2.000731945037842	84.0	n/a	n/a	Mowing_the_lawn/v_Mowing_the_lawn_id_eNZuQrHRuQI_start_3.0_label_1.mp4
124.02243900299072	2.0005040168762207	172.0	-1.0	0.0005640983581542	Walking_the_dog/v_Walking_the_dog_id_kwIc9Z0s9Bg_start_29.5_label_1.mp4
132.0218141078949	1.9834930896759035	4.0	1.0	0.000673770904541	BMX/v_BMX_id_DpjOcsSymxU_start_26.0_label_1.mp4
136.02188897132874	1.999988079071045	37.0	-1.0	0.0004489421844482	Dodgeball/v_Dodgeball_id_y_OLO6oyq_U_start_11.0_label_1.mp4
140.02114510536194	2.0003750324249268	144.0	1.0	0.0005328655242919	Snatch/v_Snatch_id_ew68sIXyVww_start_3.5_label_1.mp4
144.02079510688782	2.000469923019409	132.0	1.0	0.0004389286041259	Sailing/v_Sailing_id_-OPFxRj_ikE_start_57.5_label_1.mp4
148.02045702934265	2.0004961490631104	121.0	-1.0	0.0005030632019042	Putting_in_contact_lenses/v_Putting_in_contact_lenses_id_FVLqNSBCQXI_start_43.5_label_1.mp4
156.0197789669037	2.0004100799560547	126.0	-1.0	0.0005469322204589	Riding_bumper_cars/v_Riding_bumper_cars_id_RD-OfZPdIVw_start_125.0_label_1.mp4
160.0194170475006	2.0005481243133545	101.0	-1.0	0.0005578994750976	Playing_guitarra/v_Playing_guitarra_id_80jTcWVvezs_start_40.0_label_1.mp4
164.019061088562	2.000659942626953	49.0	-1.0	0.0005149841308593	Fixing_the_roof/v_Fixing_the_roof_id_fljxcvQe_Mo_start_79.0_label_1.mp4
168.0187690258026	2.0003790855407715	175.0	1.0	0.0005319118499755	Waterskiing/v_Waterskiing_id_w69pipCSlM4_start_82.0_label_1.mp4
172.01837706565857	2.000448942184448	30.0	-1.0	0.0005631446838378	Cleaning_windows/v_Cleaning_windows_id_6mgg5j4oFco_start_5.5_label_1.mp4
180.0173761844635	2.03409481048584	163.0	1.0	0.0006139278411865	Using_parallel_bars/v_Using_parallel_bars_id_jFPxgF-CT2c_start_122.0_label_1.mp4
184.01739311218265	2.0004420280456543	140.0	1.0	0.0005939006805419	Skiing/v_Skiing_id_9VN3rtBlYdg_start_1.0_label_1.mp4
188.01716208457947	2.0167999267578125	43.0	-1.0	0.0005929470062255	Doing_nails/v_Doing_nails_id_-22kxhFUhwQ_start_120.5_label_1.mp4
192.0166821479797	2.000216007232666	146.0	1.0	0.0006639957427978	Snowboarding/v_Snowboarding_id_GPVZGd6YUPs_start_46.5_label_1.mp4
196.01634407043457	2.000422954559326	26.0	-1.0	0.0006971359252929	Chopping_wood/v_Chopping_wood_id__jfjX6J72bo_start_8.0_label_1.mp4
204.0156741142273	2.0003740787506104	98.0	-1.0	0.0006389617919921	Playing_drums/v_Playing_drums_id_hvzMY-Cz4no_start_85.5_label_1.mp4
208.01539206504825	2.000356912612915	69.0	-1.0	0.0005419254302978	Ironing_clothes/v_Ironing_clothes_id_dTSUzpcZfqc_start_166.0_label_1.mp4
212.0150110721588	2.000447988510132	21.0	-1.0	0.000655174255371	Camel_ride/v_Camel_ride_id_D6obA6ShMNM_start_9.5_label_1.mp4
216.0146331787109	1.983768939971924	11.0	-1.0	0.0005590915679931	Belly_dance/v_Belly_dance_id_WUogRZo-3VA_start_234.5_label_1.mp4
220.01429104805	2.000791072845459	44.0	-1.0	0.0007359981536865	Doing_step_aerobics/v_Doing_step_aerobics_id_MAKZ9XOamXc_start_75.5_label_1.mp4
228.0136351585388	2.000459909439087	139.0	1.0	0.0006358623504638	Skateboarding/v_Skateboarding_id_1wUw3yebBz8_start_115.0_label_1.mp4
232.013277053833	2.0004029273986816	142.0	-1.0	0.0005562305450439	Smoking_a_cigarette/v_Smoking_a_cigarette_id_r-m27SZUFj0_start_6.0_label_1.mp4
236.01319217681885	2.0001018047332764	77.0	1.0	0.0006189346313476	Longboarding/v_Longboarding_id_pjaKeb-wSVw_start_0.5_label_1.mp4
240.01258206367493	2.0007619857788086	130.0	1.0	0.000500202178955	Rope_skipping/v_Rope_skipping_id_1hTwEFM7zhU_start_7.5_label_1.mp4
244.0123190879821	2.000755071640014	108.0	1.0	0.0005369186401367	Playing_pool/v_Playing_pool_id_u6JfIIzKNqY_start_81.0_label_1.mp4
252.01132798194885	2.000977039337158	23.0	1.0	0.0004589557647705	Capoeira/v_Capoeira_id_qSlErW40F14_start_88.0_label_1.mp4
256.0112781524658	2.0005998611450195	93.0	1.0	0.0005881786346435	Playing_badminton/v_Playing_badminton_id_h32h8mkHxsA_start_32.0_label_1.mp4
260.01089310646057	2.000329971313477	25.0	1.0	0.0006289482116699	Cheerleading/v_Cheerleading_id_hoSn4jnJi3w_start_71.0_label_1.mp4
264.0106241703033	2.0005619525909424	118.0	1.0	0.0006279945373535	Powerbocking/v_Powerbocking_id_wuDVj1G--hM_start_40.0_label_1.mp4
268.01020097732544	2.000697135925293	52.0	-1.0	0.0004501342773437	Getting_a_haircut/v_Getting_a_haircut_id_5GmRqH0jWsQ_start_23.5_label_1.mp4
276.0096380710602	2.000364065170288	2.0	1.0	0.0006728172302246	Arm_wrestling/v_Arm_wrestling_id_sBlLdfDj6iA_start_38.0_label_1.mp4
280.00943517684937	1.999727964401245	111.0	-1.0	0.0007209777832031	Playing_saxophone/v_Playing_saxophone_id_kNWhryjd6_8_start_109.5_label_1.mp4
284.0088629722595	1.9999802112579343	42.0	1.0	0.0005891323089599	Doing_motocross/v_Doing_motocross_id_dYzyNgQWJb4_start_2.0_label_1.mp4
288.0085141658783	2.016933917999268	60.0	-1.0	0.0005538463592529	Hanging_wallpaper/v_Hanging_wallpaper_id_NWJHd684s64_start_8.5_label_1.mp4
292.00825715065	2.0172059535980225	55.0	-1.0	0.0010468959808349	Grooming_dog/v_Grooming_dog_id_qC8cYXPNC54_start_36.0_label_1.mp4
