onset	duration	trial_type	response	response_time	stim_file
12.015109062194824	2.100398063659668	174.0	-1.0	0.0004940032958984	Washing_hands/v_Washing_hands_id_vbHfbJ0LyaU_start_95.5_label_1.mp4
16.01480007171631	2.033663988113404	177.0	-1.0	0.0005271434783935	Welding/v_Welding_id_8liqC5RmwQo_start_22.5_label_1.mp4
20.014429092407227	2.0007479190826416	52.0	-1.0	0.000648021697998	Getting_a_haircut/v_Getting_a_haircut_id_KARCyCorlbY_start_24.5_label_1.mp4
24.01413917541504	2.0004749298095703	137.0	-1.0	0.000648021697998	Shoveling_snow/v_Shoveling_snow_id_fE8zvQmGoqc_start_35.5_label_1.mp4
28.01378512382508	2.0007529258728027	123.0	-1.0	0.0006110668182373	Putting_on_shoes/v_Putting_on_shoes_id_ziuqw_lzvE8_start_4.0_label_1.mp4
36.013182163238525	2.0003750324249268	97.0	-1.0	0.0005099773406982	Playing_congas/v_Playing_congas_id_XD3wTspMZgI_start_87.5_label_1.mp4
40.01278400421143	2.000752210617065	47.0	1.0	0.0005760192871093	Elliptical_trainer/v_Elliptical_trainer_id_5bSKI_JoPz8_start_12.5_label_1.mp4
44.01250910758972	2.0001790523529053	75.0	-1.0	0.0007240772247314	Laying_tile/v_Laying_tile_id_WxFPOZrAF8M_start_112.5_label_1.mp4
48.01207900047302	2.000690221786499	71.0	1.0	0.0006089210510253	Kayaking/v_Kayaking_id_1fvu2beljg8_start_89.0_label_1.mp4
52.011786222457886	2.000769853591919	38.0	1.0	0.0008168220520019	Doing_crunches/v_Doing_crunches_id_dyBmDOAnUu8_start_75.0_label_1.mp4
60.01109004020691	2.000473022460937	21.0	-1.0	0.0005722045898437	Camel_ride/v_Camel_ride_id_K1-S86ghciQ_start_1.5_label_1.mp4
64.01073718070984	2.000279903411865	142.0	-1.0	0.0006189346313476	Smoking_a_cigarette/v_Smoking_a_cigarette_id_RTthkTpueTQ_start_39.5_label_1.mp4
68.01036500930786	2.000007152557373	125.0	-1.0	0.0005638599395751	Raking_leaves/v_Raking_leaves_id_6Yg9HpfkTtc_start_55.0_label_1.mp4
72.01006507873535	2.017297983169556	124.0	1.0	0.0005209445953369	Rafting/v_Rafting_id_phVBnd1ttu8_start_52.5_label_1.mp4
76.00981307029724	1.9999539852142327	49.0	-1.0	0.0006020069122314	Fixing_the_roof/v_Fixing_the_roof_id_lxO5N7A8BVs_start_82.5_label_1.mp4
84.02553915977478	1.984394073486328	8.0	1.0	0.0006830692291259	Baton_twirling/v_Baton_twirling_id__xnjXZP_xJQ_start_62.5_label_1.mp4
88.00870108604431	2.00032901763916	94.0	-1.0	0.0005950927734375	Playing_bagpipes/v_Playing_bagpipes_id_fNwhc0mJDXo_start_11.0_label_1.mp4
92.00835704803468	2.016862154006958	145.0	1.0	0.0004520416259765	Snow_tubing/v_Snow_tubing_id_1JHgbOPciOA_start_109.0_label_1.mp4
96.00803303718568	2.0172221660614014	57.0	n/a	n/a	Hammer_throw/v_Hammer_throw_id_7t_OIXb_dOs_start_6.0_label_1.mp4
100.007746219635	2.017225980758667	17.0	-1.0	0.0004870891571044	Building_sandcastles/v_Building_sandcastles_id_cidC66nnRZ0_start_8.0_label_1.mp4
108.0071120262146	2.0336480140686035	104.0	1.0	0.0007719993591308	Playing_kickball/v_Playing_kickball_id_I4Uqu_dooms_start_17.5_label_1.mp4
112.02333211898804	2.0001490116119385	170.0	1.0	0.000594139099121	Volleyball/v_Volleyball_id_9jwnKa6jt0Q_start_69.5_label_1.mp4
116.0058491230011	2.0175929069519043	96.0	1.0	0.0011289119720458	Playing_blackjack/v_Playing_blackjack_id_tgR7V-UpdxA_start_76.5_label_1.mp4
120.02267813682556	2.0003130435943604	84.0	-1.0	0.1667799949645996	Mowing_the_lawn/v_Mowing_the_lawn_id_FTqU-DYJ5hU_start_53.0_label_1.mp4
124.0223240852356	2.000395059585572	131.0	1.0	0.0004529953002929	Running_a_marathon/v_Running_a_marathon_id_HvKHW7nEbBc_start_24.0_label_1.mp4
132.02138113975525	2.000428915023804	2.0	1.0	0.0005569458007812	Arm_wrestling/v_Arm_wrestling_id_fIUlTg-2B0g_start_89.0_label_1.mp4
136.02133107185364	2.000458002090454	40.0	1.0	0.0005030632019042	Doing_karate/v_Doing_karate_id_jkB0teWTulU_start_14.5_label_1.mp4
140.02100014686584	2.0003740787506104	89.0	1.0	0.0005722045898437	Ping-pong/v_Ping-pong_id_r1yYqpRSmmY_start_45.0_label_1.mp4
144.02061414718628	2.000675916671753	105.0	n/a	n/a	Playing_lacrosse/v_Playing_lacrosse_id_d8Rr7PJ1Qrk_start_47.5_label_1.mp4
148.02028512954712	2.000488042831421	19.0	1.0	0.0005731582641601	Bungee_jumping/v_Bungee_jumping_id_NNMOtIXlwg0_start_44.0_label_1.mp4
156.0196352005005	2.0004420280456543	72.0	-1.0	0.0005660057067871	Kite_flying/v_Kite_flying_id_NghRj4EkdE4_start_8.5_label_1.mp4
160.01926922798157	2.000229835510254	132.0	1.0	0.0005080699920654	Sailing/v_Sailing_id_IzWAP03vJ3g_start_5.0_label_1.mp4
164.018972158432	2.000524044036865	65.0	-1.0	0.0005710124969482	Horseback_riding/v_Horseback_riding_id_4uMiRD4UzFE_start_75.0_label_1.mp4
168.01867008209229	2.000448942184448	88.0	n/a	n/a	Painting_furniture/v_Painting_furniture_id__wJ6Dd1Xpr0_start_4.0_label_1.mp4
172.01829719543457	2.000573873519897	34.0	-1.0	0.0007269382476806	Decorating_the_Christmas_tree/v_Decorating_the_Christmas_tree_id_jAXFc6BFcsw_start_136.5_label_1.mp4
180.01760721206665	1.983874797821045	180.0	-1.0	0.0006911754608154	Zumba/v_Zumba_id_rcm8Gfy_B8c_start_59.5_label_1.mp4
184.01725602149963	2.000553131103516	9.0	1.0	0.0006370544433593	Beach_soccer/v_Beach_soccer_id_kq5hQ1Qq7jM_start_22.0_label_1.mp4
188.01704216003412	2.000386953353882	37.0	1.0	0.0004899501800537	Dodgeball/v_Dodgeball_id_iD7AXnsh1e8_start_41.5_label_1.mp4
192.0165421962738	2.000263929367065	80.0	-1.0	0.0005378723144531	Making_a_sandwich/v_Making_a_sandwich_id_l5qMvLHXJEI_start_43.5_label_1.mp4
196.0162172317505	2.000809907913208	32.0	1.0	0.0005970001220703	Croquet/v_Croquet_id_g4cNYqwTY8A_start_50.5_label_1.mp4
204.0155792236328	2.000337839126587	100.0	n/a	n/a	Playing_flauta/v_Playing_flauta_id_37QcLuiYdsk_start_52.0_label_1.mp4
208.0151882171631	2.0005578994750977	154.0	-1.0	0.0005438327789306	Swinging_at_the_playground/v_Swinging_at_the_playground_id_CKBfiSeSkM4_start_2.5_label_1.mp4
212.01486611366272	2.000452995300293	36.0	1.0	0.0007131099700927	Discus_throw/v_Discus_throw_id_qXFrFZvnSyo_start_3.0_label_1.mp4
216.0144910812378	2.000715970993042	178.0	1.0	0.0006380081176757	Windsurfing/v_Windsurfing_id_1qMoXBZaM3E_start_10.0_label_1.mp4
220.0141580104828	2.0007641315460205	56.0	-1.0	0.0007050037384033	Grooming_horse/v_Grooming_horse_id_w9N__iNK8AY_start_145.5_label_1.mp4
228.01349306106567	2.0006439685821533	112.0	1.0	0.0007171630859375	Playing_squash/v_Playing_squash_id__amer8DTvhc_start_49.5_label_1.mp4
232.0131230354309	2.000606060028076	64.0	1.0	0.0005550384521484	Hopscotch/v_Hopscotch_id_zuv9er92A6Q_start_10.5_label_1.mp4
236.01285219192505	2.000304937362671	1.0	1.0	0.0005378723144531	Archery/v_Archery_id_WjkOohNM2xQ_start_69.5_label_1.mp4
240.0124490261078	2.00046706199646	66.0	-1.0	0.000687837600708	Hula_hoop/v_Hula_hoop_id_RxMvIftInDc_start_32.0_label_1.mp4
244.0121190547943	2.033508062362671	102.0	-1.0	0.0005700588226318	Playing_harmonica/v_Playing_harmonica_id_Xx6Q8ZWEvjs_start_119.0_label_1.mp4
252.01137113571167	2.0007519721984863	50.0	-1.0	0.0005810260772705	Fun_sliding_down/v_Fun_sliding_down_id_uT60Rtrw4fA_start_114.0_label_1.mp4
256.01104617118835	2.000570058822632	115.0	1.0	0.0006651878356933	Pole_vault/v_Pole_vault_id_nu1eyL9tOdY_start_35.5_label_1.mp4
260.0107500553131	2.017807960510254	48.0	1.0	0.0006170272827148	Fixing_bicycle/v_Fixing_bicycle_id_Ixdbx8I3i8Q_start_2.5_label_1.mp4
264.0103981494904	2.050392866134644	24.0	n/a	n/a	Carving_jack-o-lanterns/v_Carving_jack-o-lanterns_id_GIuXtF4s4sI_start_129.5_label_1.mp4
268.010103225708	2.0001988410949707	152.0	1.0	0.0006659030914306	Surfing/v_Surfing_id_CwlCWk-90nY_start_44.0_label_1.mp4
276.0093960762024	2.000643014907837	118.0	n/a	n/a	Powerbocking/v_Powerbocking_id_gPUUzvK3rVo_start_11.0_label_1.mp4
280.0090551376343	2.000051975250244	13.0	-1.0	0.0005159378051757	Braiding_hair/v_Braiding_hair_id_9H4p7HrU2bY_start_66.0_label_1.mp4
284.0086901187897	2.0170929431915283	78.0	-1.0	0.0005409717559814	Making_a_cake/v_Making_a_cake_id_kITt3ZOD8qI_start_48.0_label_1.mp4
288.0083901882172	2.0175609588623047	136.0	1.0	0.000472068786621	Shot_put/v_Shot_put_id_dq6BxQWM4Ds_start_77.5_label_1.mp4
292.0082731246948	2.0168120861053467	67.0	1.0	0.0005199909210205	Hurling/v_Hurling_id_006rAyzyAQo_start_7.5_label_1.mp4
